Sub,TrType,Trial,A1,A2,B1,B2,Decoy1,Decoy2,resp,choice,RT
2,AttR1,3,3.5,6.5,6.6,3.4,2.9,6.5,2,2,70.7
2,AttF1,4,3.5,6.4,6.7,3.2,3.5,5.7,3,2,48.404
2,AttRF2,6,3.6,6.6,6.9,3.3,6.3,2.8,1,2,49.619
2,AttR1,7,3.3,6.6,6.4,3.5,2.7,6.6,3,3,42.572
2,AttF1,8,3.5,6.6,6.7,3.4,3.5,6.0,1,3,36.412
2,AttR2,10,3.2,6.8,6.5,3.5,6.5,3.0,2,3,35.813
2,AttR1,11,3.5,6.6,6.9,3.2,3.1,6.6,1,2,42.686
2,AttR1,15,3.2,6.8,6.5,3.5,2.8,6.8,3,1,22.149
2,AttRF2,16,3.4,6.8,6.9,3.3,6.2,2.8,1,2,52.012
2,AttRF2,18,3.5,6.6,6.7,3.4,6.1,2.7,3,1,37.932
2,AttRF1,20,3.2,6.6,6.3,3.5,2.6,6.2,3,1,21.221
2,AttR1,21,3.1,6.8,6.5,3.4,2.5,6.8,1,3,25.436
2,AttRF1,22,3.3,6.8,6.5,3.6,2.9,6.1,2,1,30.309
2,AttRF1,23,3.4,6.5,6.7,3.2,3.0,6.1,3,1,9.852
2,AttR2,25,3.4,6.5,6.7,3.2,6.7,2.6,1,2,19.802
2,AttR2,26,3.3,6.6,6.4,3.5,6.4,2.9,1,1,12.979
2,AttF2,28,3.4,6.6,6.7,3.3,6.1,3.3,1,3,28.011
2,AttRF1,29,3.3,6.8,6.5,3.6,2.9,6.1,2,1,28.153
2,AttRF2,30,3.3,6.6,6.4,3.5,5.8,2.9,1,1,8.155
2,AttR2,32,3.4,6.6,6.7,3.3,6.7,2.6,1,2,16.826
2,AttRF1,35,3.0,6.9,6.8,3.1,2.4,6.3,1,2,22.394
2,AttR2,40,3.5,6.6,6.9,3.2,6.9,2.7,1,2,25.466
2,AttR2,42,3.6,6.6,6.9,3.3,6.9,2.6,1,2,27.683
2,AttRF1,44,3.5,6.4,6.7,3.2,2.9,5.9,1,2,9.94
2,AttF2,48,3.3,6.6,6.4,3.5,5.8,3.5,1,2,10.473
2,AttRF2,52,3.5,6.6,6.5,3.6,6.0,3.2,3,2,12.538
2,AttR2,53,3.3,6.8,6.5,3.6,6.5,3.1,2,1,22.738
2,AttR1,54,3.5,6.6,6.7,3.4,3.0,6.6,2,1,11.378
2,AttF1,58,3.5,6.6,6.5,3.6,3.5,6.2,2,2,17.434
2,AttR2,64,3.5,6.5,6.6,3.4,6.6,3.0,3,1,0.874
2,AttRF2,66,3.2,6.8,6.5,3.5,5.8,2.9,1,2,4.219
2,AttRF1,67,3.4,6.8,6.9,3.3,2.8,6.2,2,2,4.794
2,AttRF1,68,3.5,6.6,6.9,3.2,2.8,5.9,3,2,4.793
2,AttF1,69,3.5,6.4,6.5,3.4,3.5,5.9,3,2,4.651
2,AttF2,71,3.5,6.4,6.7,3.2,6.3,3.2,1,2,3.676
2,AttF1,74,3.5,6.7,6.6,3.6,3.5,6.2,2,1,4.817
2,AttF1,77,3.1,6.8,6.5,3.4,3.1,6.1,3,1,2.898
2,AttR2,78,3.2,6.6,6.3,3.5,6.3,3.1,2,1,2.938
2,AttF1,81,3.4,6.6,6.7,3.3,3.4,6.1,3,2,3.066
2,AttR1,83,3.4,6.6,6.7,3.3,2.9,6.6,3,2,3.192
2,AttRF2,85,3.5,6.5,6.6,3.4,6.2,3.0,3,2,3.131
2,AttRF1,86,3.5,6.7,6.6,3.6,2.9,6.1,1,1,2.379
2,AttF1,90,3.2,6.8,6.5,3.5,3.2,6.2,1,1,2.258
2,AttR2,91,3.1,6.8,6.5,3.4,6.5,2.9,2,1,2.603
2,AttF2,92,3.5,6.7,6.6,3.6,6.1,3.6,2,1,3.603
2,AttR2,93,3.0,6.9,6.8,3.1,6.8,2.5,2,1,2.218
2,AttRF1,94,3.5,6.5,6.6,3.4,3.0,5.8,2,2,3.658
2,AttRF2,97,3.5,6.4,6.5,3.4,5.9,3.0,2,3,4.385
2,AttR1,98,3.5,6.7,6.6,3.6,3.1,6.7,1,1,6.259
2,AttR2,99,3.5,6.6,6.7,3.4,6.7,3.0,1,2,5.003
2,AttRF1,100,3.5,6.4,6.5,3.4,3.0,5.9,2,2,3.633
2,AttF2,102,3.3,6.8,6.5,3.6,5.9,3.6,1,1,4.529
2,AttRF1,105,3.5,6.6,6.7,3.4,3.1,6.2,3,2,4.042
2,AttF1,106,3.5,6.6,6.9,3.2,3.5,6.2,2,2,2.61
2,AttRF2,107,3.3,6.6,6.4,3.5,5.9,2.8,2,1,3.545
2,AttF2,109,3.4,6.5,6.7,3.2,6.2,3.2,2,2,3.881
2,AttR1,113,3.4,6.8,6.9,3.3,2.9,6.8,2,2,3.61
2,AttR2,115,3.5,6.4,6.7,3.2,6.7,2.6,1,2,5.73
2,AttRF1,116,3.6,6.6,6.9,3.3,3.0,6.1,3,2,3.091
2,AttR2,117,3.3,6.6,6.4,3.5,6.4,2.8,3,1,2.953
2,AttR2,119,3.3,6.8,6.5,3.6,6.5,2.9,1,1,3.583
2,AttR1,121,3.5,6.6,6.5,3.6,2.9,6.6,3,1,2.707
2,AttR1,122,3.2,6.9,6.6,3.5,2.6,6.9,3,1,6.182
2,AttF2,124,3.4,6.8,6.9,3.3,6.3,3.3,2,1,2.522
2,AttF1,125,3.4,6.5,6.7,3.2,3.4,6.1,3,2,4.139
2,AttF1,126,3.4,6.8,6.9,3.3,3.4,6.1,1,1,2.898
2,AttR1,127,3.3,6.8,6.5,3.6,2.8,6.8,2,1,6.186
2,AttRF2,128,3.4,6.5,6.7,3.2,6.2,2.8,1,2,2.513
2,AttF1,129,3.2,6.9,6.6,3.5,3.2,6.3,3,1,1.979
2,AttF2,131,3.5,6.6,6.9,3.2,6.4,3.2,1,1,2.946
2,AttF2,132,3.0,6.9,6.8,3.1,6.4,3.1,3,1,2.641
2,AttF2,133,3.6,6.6,6.9,3.3,6.3,3.3,2,2,2.272
2,AttF2,136,3.2,6.8,6.5,3.5,6.1,3.5,3,2,4.162
2,AttR2,138,3.5,6.4,6.5,3.4,6.5,2.7,1,2,7.93
2,AttF2,140,3.3,6.8,6.5,3.6,5.9,3.6,2,1,3.443
2,AttF1,141,3.3,6.8,6.5,3.6,3.3,6.4,1,1,2.185
2,AttR1,142,3.4,6.5,6.7,3.2,2.8,6.5,1,2,2.786
2,AttF2,143,3.1,6.8,6.5,3.4,5.8,3.4,2,1,3.403
2,AttF1,145,3.5,6.5,6.6,3.4,3.5,5.9,2,2,1.868
2,AttRF1,147,3.2,6.9,6.6,3.5,2.7,6.4,1,1,5.251
2,AttF2,149,3.5,6.6,6.7,3.4,6.0,3.4,2,1,3.881
2,AttF2,150,3.5,6.5,6.6,3.4,6.0,3.4,3,2,2.867
2,AttF2,152,3.5,6.6,6.5,3.6,5.9,3.6,1,1,10.306
2,AttF1,155,3.0,6.9,6.8,3.1,3.0,6.5,3,1,8.004
2,AttF2,156,3.3,6.6,6.4,3.5,5.8,3.5,2,1,3.465
2,AttRF2,158,3.0,6.9,6.8,3.1,6.2,2.5,1,2,4.699
2,AttR2,161,3.4,6.8,6.9,3.3,6.9,2.7,3,2,3.282
2,AttR1,165,3.5,6.4,6.5,3.4,3.1,6.4,3,2,4.113
2,AttF1,166,3.2,6.6,6.3,3.5,3.2,6.1,3,1,1.987
2,AttR2,167,3.5,6.6,6.5,3.6,6.5,3.0,2,1,2.089
2,AttF1,169,3.6,6.6,6.9,3.3,3.6,5.9,1,2,1.505
2,AttRF1,170,3.4,6.6,6.7,3.3,2.9,6.0,1,2,1.235
2,AttF2,173,3.2,6.9,6.6,3.5,6.1,3.5,2,1,4.322
2,AttRF1,174,3.3,6.6,6.4,3.5,2.7,6.1,1,1,3.666
2,AttR1,179,3.3,6.6,6.4,3.5,2.9,6.6,1,1,8.882
2,AttRF2,180,3.4,6.6,6.7,3.3,6.2,2.7,1,1,3.594
2,AttRF1,182,3.3,6.6,6.4,3.5,2.7,5.9,2,1,4.888
2,AttRF2,183,3.5,6.4,6.7,3.2,6.1,2.7,3,2,15.386
2,AttR2,185,3.5,6.7,6.6,3.6,6.6,2.9,1,1,2.866
2,AttR2,188,3.2,6.9,6.6,3.5,6.6,3.1,1,1,4.388
2,AttF1,191,3.3,6.6,6.4,3.5,3.3,6.1,2,1,2.715
2,AttRF1,193,3.5,6.6,6.5,3.6,3.0,5.9,1,1,2.129
2,AttF2,198,3.5,6.4,6.5,3.4,5.8,3.4,1,2,2.019
2,AttR1,199,3.5,6.4,6.7,3.2,2.8,6.4,3,2,2.708
2,AttF2,204,3.2,6.6,6.3,3.5,5.7,3.5,2,1,3.065
2,AttRF2,207,3.5,6.7,6.6,3.6,6.0,3.2,2,1,3.385
2,AttRF2,210,3.2,6.9,6.6,3.5,6.1,3.1,2,3,2.481
2,AttF1,211,3.3,6.8,6.5,3.6,3.3,6.4,2,1,2.122
2,AttRF1,212,3.2,6.8,6.5,3.5,2.5,6.4,1,1,2.62
2,AttR1,213,3.2,6.6,6.3,3.5,2.7,6.6,2,1,4.617
2,AttF1,217,3.3,6.6,6.4,3.5,3.3,6.2,2,1,2.618
2,AttRF2,221,3.1,6.8,6.5,3.4,5.9,2.8,2,1,2.948
2,AttR1,223,3.3,6.8,6.5,3.6,2.8,6.8,3,1,4.443
2,AttRF2,228,3.3,6.8,6.5,3.6,5.8,2.9,2,1,2.114
2,AttRF2,232,3.5,6.6,6.9,3.2,6.2,2.7,3,2,2.89
2,AttRF2,236,3.3,6.8,6.5,3.6,5.8,3.1,3,1,3.484
2,AttR1,237,3.6,6.6,6.9,3.3,3.2,6.6,3,2,2.465
2,AttRF2,238,3.2,6.6,6.3,3.5,5.8,2.9,1,1,3.091
2,AttR1,239,3.0,6.9,6.8,3.1,2.6,6.9,1,1,3.658
2,AttRF1,240,3.1,6.8,6.5,3.4,2.4,6.2,2,1,4.17
3,AttF1,1,3.5,6.6,6.7,3.4,3.5,6.0,2,1,18.934
3,AttR2,2,3.5,6.4,6.5,3.4,6.5,2.7,1,1,12.979
3,AttRF2,4,3.5,6.6,6.5,3.6,6.0,3.2,1,1,9.427
3,AttF2,6,3.5,6.4,6.7,3.2,6.3,3.2,2,2,11.667
3,AttR2,7,3.3,6.8,6.5,3.6,6.5,3.1,3,2,3.044
3,AttR1,9,3.6,6.6,6.9,3.3,3.2,6.6,1,2,1.746
3,AttF1,11,3.2,6.6,6.3,3.5,3.2,6.1,1,2,2.898
3,AttR2,17,3.3,6.8,6.5,3.6,6.5,2.9,2,2,2.771
3,AttR2,22,3.3,6.6,6.4,3.5,6.4,2.8,2,1,1.138
3,AttRF2,23,3.2,6.8,6.5,3.5,5.8,2.9,3,2,2.793
3,AttRF2,25,3.4,6.5,6.7,3.2,6.2,2.8,1,2,5.518
3,AttF1,26,3.6,6.6,6.9,3.3,3.6,5.9,3,1,1.263
3,AttRF1,30,3.2,6.9,6.6,3.5,2.7,6.4,2,2,1.968
3,AttRF2,31,3.3,6.8,6.5,3.6,5.8,3.1,3,2,2.273
3,AttF1,32,3.5,6.4,6.7,3.2,3.5,5.7,2,2,2.125
3,AttRF2,33,3.2,6.6,6.3,3.5,5.8,2.9,2,1,2.176
3,AttF2,34,3.1,6.8,6.5,3.4,5.8,3.4,2,1,1.695
3,AttF2,36,3.5,6.7,6.6,3.6,6.1,3.6,2,1,3.519
3,AttF2,37,3.5,6.6,6.9,3.2,6.4,3.2,3,2,2.191
3,AttF2,40,3.3,6.6,6.4,3.5,5.8,3.5,1,2,1.997
3,AttRF2,42,3.4,6.6,6.7,3.3,6.2,2.7,3,2,2.833
3,AttF1,43,3.3,6.8,6.5,3.6,3.3,6.4,3,2,1.95
3,AttRF1,48,3.2,6.6,6.3,3.5,2.6,6.2,3,1,3.527
3,AttRF2,51,3.3,6.6,6.4,3.5,5.9,2.8,2,1,2.046
3,AttRF2,53,3.3,6.6,6.4,3.5,5.8,2.9,2,2,2.19
3,AttR1,54,3.5,6.6,6.5,3.6,2.9,6.6,3,3,1.601
3,AttRF1,55,3.5,6.6,6.9,3.2,2.8,5.9,2,2,2.224
3,AttRF1,56,3.2,6.8,6.5,3.5,2.5,6.4,2,1,3.28
3,AttRF1,57,3.5,6.4,6.5,3.4,3.0,5.9,1,2,1.649
3,AttRF2,58,3.5,6.7,6.6,3.6,6.0,3.2,2,2,2.16
3,AttF1,61,3.4,6.5,6.7,3.2,3.4,6.1,1,2,1.858
3,AttF2,63,3.2,6.6,6.3,3.5,5.7,3.5,2,1,1.953
3,AttRF1,64,3.1,6.8,6.5,3.4,2.4,6.2,3,1,1.488
3,AttR1,66,3.5,6.4,6.5,3.4,3.1,6.4,1,1,2.495
3,AttRF1,67,3.4,6.8,6.9,3.3,2.8,6.2,1,2,2.529
3,AttRF1,70,3.3,6.6,6.4,3.5,2.7,6.1,1,3,1.361
3,AttF1,72,3.5,6.4,6.5,3.4,3.5,5.9,1,2,1.953
3,AttR1,73,3.5,6.4,6.7,3.2,2.8,6.4,2,2,1.776
3,AttRF2,76,3.5,6.4,6.5,3.4,5.9,3.0,1,2,2.927
3,AttRF1,80,3.3,6.8,6.5,3.6,2.9,6.1,3,2,2.722
3,AttF2,81,3.5,6.6,6.7,3.4,6.0,3.4,1,2,3.232
3,AttF1,82,3.5,6.6,6.5,3.6,3.5,6.2,3,1,2.863
3,AttRF2,84,3.3,6.8,6.5,3.6,5.8,2.9,1,2,2.531
3,AttF2,85,3.3,6.6,6.4,3.5,5.8,3.5,1,2,3.358
3,AttF2,86,3.5,6.6,6.5,3.6,5.9,3.6,2,2,1.775
3,AttF1,89,3.3,6.8,6.5,3.6,3.3,6.4,3,1,2.05
3,AttRF1,90,3.3,6.8,6.5,3.6,2.9,6.1,2,1,1.984
3,AttF2,91,3.4,6.8,6.9,3.3,6.3,3.3,3,2,2.303
3,AttR2,92,3.2,6.8,6.5,3.5,6.5,3.0,1,1,2.623
3,AttRF1,97,3.5,6.5,6.6,3.4,3.0,5.8,3,3,2.094
3,AttF1,98,3.5,6.6,6.9,3.2,3.5,6.2,3,3,7.872
3,AttRF1,100,3.6,6.6,6.9,3.3,3.0,6.1,1,2,1.505
3,AttF2,101,3.5,6.5,6.6,3.4,6.0,3.4,2,1,1.699
3,AttRF2,103,3.6,6.6,6.9,3.3,6.3,2.8,3,2,1.68
3,AttF1,104,3.0,6.9,6.8,3.1,3.0,6.5,2,2,2.03
3,AttR2,105,3.4,6.8,6.9,3.3,6.9,2.7,2,2,2.095
3,AttR2,106,3.5,6.4,6.7,3.2,6.7,2.6,3,2,2.414
3,AttF2,107,3.6,6.6,6.9,3.3,6.3,3.3,1,2,1.905
3,AttF1,109,3.3,6.6,6.4,3.5,3.3,6.2,1,1,3.377
3,AttR1,113,3.3,6.6,6.4,3.5,2.7,6.6,3,2,2.673
3,AttR1,115,3.5,6.5,6.6,3.4,2.9,6.5,3,2,1.47
3,AttR1,116,3.5,6.6,6.9,3.2,3.1,6.6,1,2,2.088
3,AttF1,118,3.1,6.8,6.5,3.4,3.1,6.1,2,2,2.193
3,AttF1,119,3.5,6.7,6.6,3.6,3.5,6.2,2,2,2.114
3,AttR1,125,3.3,6.6,6.4,3.5,2.9,6.6,3,3,6.191
3,AttR1,127,3.4,6.8,6.9,3.3,2.9,6.8,2,1,1.711
3,AttF1,128,3.2,6.9,6.6,3.5,3.2,6.3,2,2,2.575
3,AttR1,129,3.3,6.8,6.5,3.6,2.8,6.8,1,1,1.869
3,AttF1,132,3.5,6.5,6.6,3.4,3.5,5.9,1,3,1.997
3,AttRF1,138,3.5,6.4,6.7,3.2,2.9,5.9,3,1,1.456
3,AttR1,139,3.1,6.8,6.5,3.4,2.5,6.8,2,1,1.59
3,AttRF2,142,3.2,6.9,6.6,3.5,6.1,3.1,2,2,2.415
3,AttR1,143,3.4,6.5,6.7,3.2,2.8,6.5,3,1,1.997
3,AttR1,144,3.2,6.8,6.5,3.5,2.8,6.8,2,1,1.873
3,AttF2,145,3.2,6.8,6.5,3.5,6.1,3.5,2,1,1.773
3,AttF2,146,3.4,6.6,6.7,3.3,6.1,3.3,3,3,1.534
3,AttRF1,148,3.5,6.6,6.5,3.6,3.0,5.9,3,1,2.126
3,AttR2,151,3.1,6.8,6.5,3.4,6.5,2.9,3,3,1.559
3,AttR1,156,3.5,6.7,6.6,3.6,3.1,6.7,3,3,1.855
3,AttRF1,157,3.3,6.6,6.4,3.5,2.7,5.9,3,2,2.431
3,AttRF2,158,3.0,6.9,6.8,3.1,6.2,2.5,3,1,1.805
3,AttRF2,161,3.5,6.6,6.7,3.4,6.1,2.7,2,2,1.585
3,AttF1,164,3.3,6.6,6.4,3.5,3.3,6.1,2,2,2.054
3,AttRF2,167,3.4,6.8,6.9,3.3,6.2,2.8,3,2,1.251
3,AttR2,169,3.5,6.7,6.6,3.6,6.6,2.9,3,1,1.743
3,AttRF2,170,3.5,6.4,6.7,3.2,6.1,2.7,1,2,1.745
3,AttR2,171,3.6,6.6,6.9,3.3,6.9,2.6,3,2,2.144
3,AttR2,174,3.5,6.6,6.7,3.4,6.7,3.0,1,2,2.478
3,AttRF1,176,3.5,6.6,6.7,3.4,3.1,6.2,2,1,2.109
3,AttR2,179,3.4,6.5,6.7,3.2,6.7,2.6,1,1,3.311
3,AttR2,180,3.5,6.6,6.5,3.6,6.5,3.0,1,3,2.064
3,AttF2,182,3.4,6.5,6.7,3.2,6.2,3.2,1,1,1.158
3,AttR1,184,3.3,6.8,6.5,3.6,2.8,6.8,3,1,1.808
3,AttF2,185,3.3,6.8,6.5,3.6,5.9,3.6,2,1,1.55
3,AttRF1,189,3.0,6.9,6.8,3.1,2.4,6.3,2,2,1.701
3,AttRF1,191,3.4,6.6,6.7,3.3,2.9,6.0,2,2,2.255
3,AttRF1,192,3.5,6.7,6.6,3.6,2.9,6.1,3,2,2.16
3,AttR2,194,3.2,6.9,6.6,3.5,6.6,3.1,2,1,3.76
3,AttR2,195,3.5,6.5,6.6,3.4,6.6,3.0,1,3,2.189
3,AttF2,200,3.5,6.4,6.5,3.4,5.8,3.4,2,2,1.872
3,AttRF1,203,3.4,6.5,6.7,3.2,3.0,6.1,1,2,1.783
3,AttF1,207,3.4,6.6,6.7,3.3,3.4,6.1,3,2,3.378
3,AttR1,208,3.2,6.9,6.6,3.5,2.6,6.9,2,2,1.919
3,AttR2,209,3.0,6.9,6.8,3.1,6.8,2.5,1,2,3.518
3,AttR2,211,3.3,6.6,6.4,3.5,6.4,2.9,1,3,2.032
3,AttR1,213,3.2,6.6,6.3,3.5,2.7,6.6,1,2,1.519
3,AttR1,215,3.0,6.9,6.8,3.1,2.6,6.9,2,2,1.255
3,AttR2,216,3.5,6.6,6.9,3.2,6.9,2.7,2,3,1.862
3,AttF2,218,3.3,6.8,6.5,3.6,5.9,3.6,2,2,2.081
3,AttR2,219,3.4,6.6,6.7,3.3,6.7,2.6,3,3,1.728
3,AttR1,222,3.4,6.6,6.7,3.3,2.9,6.6,3,2,1.567
3,AttRF2,223,3.5,6.5,6.6,3.4,6.2,3.0,1,2,1.55
3,AttF1,224,3.2,6.8,6.5,3.5,3.2,6.2,2,1,1.569
3,AttR2,225,3.2,6.6,6.3,3.5,6.3,3.1,3,3,1.391
3,AttRF2,226,3.1,6.8,6.5,3.4,5.9,2.8,2,2,1.765
3,AttF2,230,3.0,6.9,6.8,3.1,6.4,3.1,1,3,2.575
3,AttRF2,234,3.5,6.6,6.9,3.2,6.2,2.7,3,1,2.369
3,AttR1,235,3.5,6.6,6.7,3.4,3.0,6.6,3,1,1.792
3,AttF2,236,3.2,6.9,6.6,3.5,6.1,3.5,1,2,2.593
3,AttF1,240,3.4,6.8,6.9,3.3,3.4,6.1,2,1,1.475
4,AttF1,1,3.5,6.4,6.5,3.4,3.5,5.9,1,3,29.015
4,AttRF1,3,3.5,6.6,6.5,3.6,3.0,5.9,3,2,42.819
4,AttRF2,4,3.5,6.7,6.6,3.6,6.0,3.2,2,2,17.01
4,AttF2,6,3.5,6.7,6.6,3.6,6.1,3.6,2,1,31.026
4,AttF1,8,3.3,6.6,6.4,3.5,3.3,6.1,1,2,34.337
4,AttRF2,10,3.3,6.8,6.5,3.6,5.8,2.9,2,3,12.932
4,AttF1,11,3.5,6.5,6.6,3.4,3.5,5.9,2,3,15.072
4,AttR2,12,3.6,6.6,6.9,3.3,6.9,2.6,2,1,6.484
4,AttR1,15,3.0,6.9,6.8,3.1,2.6,6.9,3,2,9.185
4,AttRF1,16,3.5,6.6,6.7,3.4,3.1,6.2,2,3,11.41
4,AttF1,17,3.0,6.9,6.8,3.1,3.0,6.5,3,3,11.122
4,AttR1,18,3.4,6.8,6.9,3.3,2.9,6.8,2,1,17.457
4,AttR2,19,3.3,6.6,6.4,3.5,6.4,2.8,2,2,60.371
4,AttR2,21,3.5,6.6,6.7,3.4,6.7,3.0,2,1,8.898
4,AttR1,22,3.5,6.6,6.7,3.4,3.0,6.6,3,1,12.978
4,AttR1,23,3.3,6.8,6.5,3.6,2.8,6.8,3,2,19.746
4,AttRF2,26,3.5,6.4,6.5,3.4,5.9,3.0,1,3,10.319
4,AttRF1,27,3.2,6.8,6.5,3.5,2.5,6.4,1,3,5.649
4,AttF1,28,3.4,6.6,6.7,3.3,3.4,6.1,2,3,3.296
4,AttR1,30,3.3,6.8,6.5,3.6,2.8,6.8,3,2,4.222
4,AttRF1,31,3.1,6.8,6.5,3.4,2.4,6.2,2,3,4.272
4,AttRF2,34,3.6,6.6,6.9,3.3,6.3,2.8,3,1,9.44
4,AttF2,36,3.3,6.6,6.4,3.5,5.8,3.5,2,3,10.704
4,AttF1,40,3.5,6.7,6.6,3.6,3.5,6.2,1,3,7.166
4,AttR2,42,3.3,6.8,6.5,3.6,6.5,3.1,2,2,7.024
4,AttR2,50,3.2,6.9,6.6,3.5,6.6,3.1,1,2,14.385
4,AttR1,51,3.5,6.4,6.5,3.4,3.1,6.4,2,1,13.678
4,AttF2,52,3.5,6.6,6.9,3.2,6.4,3.2,2,1,17.664
4,AttF2,53,3.1,6.8,6.5,3.4,5.8,3.4,1,3,4.608
4,AttF2,56,3.4,6.5,6.7,3.2,6.2,3.2,1,3,37.52
4,AttRF1,57,3.5,6.5,6.6,3.4,3.0,5.8,3,3,5.903
4,AttRF2,59,3.5,6.6,6.7,3.4,6.1,2.7,2,3,7.406
4,AttR1,62,3.5,6.4,6.7,3.2,2.8,6.4,1,1,14.023
4,AttF1,63,3.5,6.6,6.9,3.2,3.5,6.2,2,1,10.096
4,AttRF1,65,3.3,6.6,6.4,3.5,2.7,6.1,3,2,8.479
4,AttRF1,67,3.5,6.6,6.9,3.2,2.8,5.9,1,3,5.17
4,AttR2,68,3.5,6.4,6.7,3.2,6.7,2.6,3,2,8.863
4,AttF1,70,3.3,6.6,6.4,3.5,3.3,6.2,1,3,5.901
4,AttR2,72,3.5,6.5,6.6,3.4,6.6,3.0,3,1,3.951
4,AttRF1,74,3.5,6.7,6.6,3.6,2.9,6.1,1,3,6.095
4,AttR1,77,3.3,6.6,6.4,3.5,2.7,6.6,3,2,3.263
4,AttR1,78,3.3,6.6,6.4,3.5,2.9,6.6,2,2,8.401
4,AttRF2,80,3.2,6.9,6.6,3.5,6.1,3.1,3,3,6.143
4,AttR2,82,3.2,6.6,6.3,3.5,6.3,3.1,1,2,5.455
4,AttF2,85,3.4,6.8,6.9,3.3,6.3,3.3,2,3,5.57
4,AttRF2,86,3.5,6.4,6.7,3.2,6.1,2.7,2,1,7.726
4,AttRF1,87,3.2,6.9,6.6,3.5,2.7,6.4,1,3,6.128
4,AttF2,89,3.2,6.6,6.3,3.5,5.7,3.5,3,3,5.342
4,AttF2,90,3.3,6.6,6.4,3.5,5.8,3.5,2,3,4.593
4,AttF1,91,3.5,6.4,6.7,3.2,3.5,5.7,2,3,3.792
4,AttRF1,92,3.5,6.4,6.7,3.2,2.9,5.9,1,3,6.448
4,AttRF2,95,3.3,6.8,6.5,3.6,5.8,3.1,2,1,1.646
4,AttR1,96,3.4,6.6,6.7,3.3,2.9,6.6,2,3,4.674
4,AttR1,97,3.4,6.5,6.7,3.2,2.8,6.5,2,3,1.44
4,AttRF1,98,3.3,6.8,6.5,3.6,2.9,6.1,1,2,6.279
4,AttRF2,99,3.5,6.6,6.9,3.2,6.2,2.7,2,1,5.584
4,AttRF2,100,3.5,6.6,6.5,3.6,6.0,3.2,1,3,6.415
4,AttF1,102,3.2,6.8,6.5,3.5,3.2,6.2,2,3,7.423
4,AttRF1,106,3.3,6.6,6.4,3.5,2.7,5.9,3,3,5.359
4,AttF2,112,3.3,6.8,6.5,3.6,5.9,3.6,1,2,7.294
4,AttRF2,115,3.2,6.6,6.3,3.5,5.8,2.9,3,3,3.521
4,AttRF1,116,3.2,6.6,6.3,3.5,2.6,6.2,1,2,4.129
4,AttR1,117,3.2,6.8,6.5,3.5,2.8,6.8,3,2,2.335
4,AttR1,119,3.5,6.7,6.6,3.6,3.1,6.7,3,2,6.142
4,AttRF2,124,3.3,6.6,6.4,3.5,5.8,2.9,2,3,4.639
4,AttF1,125,3.5,6.6,6.5,3.6,3.5,6.2,3,2,3.182
4,AttF2,126,3.2,6.8,6.5,3.5,6.1,3.5,1,1,3.95
4,AttRF2,127,3.3,6.6,6.4,3.5,5.9,2.8,2,3,5.971
4,AttR1,129,3.5,6.6,6.9,3.2,3.1,6.6,1,1,4.096
4,AttRF1,130,3.0,6.9,6.8,3.1,2.4,6.3,3,3,5.775
4,AttR1,132,3.1,6.8,6.5,3.4,2.5,6.8,2,2,3.329
4,AttRF1,136,3.4,6.6,6.7,3.3,2.9,6.0,2,3,5.102
4,AttRF1,140,3.4,6.5,6.7,3.2,3.0,6.1,2,3,7.088
4,AttF2,143,3.3,6.8,6.5,3.6,5.9,3.6,1,3,3.088
4,AttF1,144,3.5,6.6,6.7,3.4,3.5,6.0,1,3,2.718
4,AttR2,145,3.2,6.8,6.5,3.5,6.5,3.0,3,2,3.857
4,AttR2,146,3.4,6.8,6.9,3.3,6.9,2.7,1,1,4.222
4,AttR2,147,3.5,6.6,6.5,3.6,6.5,3.0,3,2,5.728
4,AttF2,148,3.0,6.9,6.8,3.1,6.4,3.1,1,3,2.206
4,AttF2,151,3.5,6.5,6.6,3.4,6.0,3.4,3,3,7.245
4,AttR1,153,3.5,6.5,6.6,3.4,2.9,6.5,3,1,5.934
4,AttF1,156,3.2,6.9,6.6,3.5,3.2,6.3,2,2,7.217
4,AttR1,159,3.2,6.6,6.3,3.5,2.7,6.6,1,2,4.721
4,AttF1,161,3.2,6.6,6.3,3.5,3.2,6.1,1,3,12.177
4,AttRF1,162,3.6,6.6,6.9,3.3,3.0,6.1,3,3,3.455
4,AttR1,164,3.2,6.9,6.6,3.5,2.6,6.9,3,2,3.07
4,AttF1,165,3.1,6.8,6.5,3.4,3.1,6.1,3,3,6.608
4,AttR2,166,3.4,6.6,6.7,3.3,6.7,2.6,2,1,3.391
4,AttF1,168,3.3,6.8,6.5,3.6,3.3,6.4,1,3,4.832
4,AttR2,174,3.5,6.4,6.5,3.4,6.5,2.7,1,1,2.863
4,AttRF2,180,3.4,6.5,6.7,3.2,6.2,2.8,1,3,5.071
4,AttR1,181,3.5,6.6,6.5,3.6,2.9,6.6,2,2,3.776
4,AttF2,186,3.5,6.4,6.5,3.4,5.8,3.4,3,3,3.408
4,AttR2,187,3.5,6.7,6.6,3.6,6.6,2.9,1,2,4.543
4,AttF1,188,3.4,6.8,6.9,3.3,3.4,6.1,2,3,2.767
4,AttR2,189,3.3,6.6,6.4,3.5,6.4,2.9,3,2,3.762
4,AttRF2,191,3.4,6.8,6.9,3.3,6.2,2.8,2,3,6.274
4,AttRF2,192,3.4,6.6,6.7,3.3,6.2,2.7,1,3,4.445
4,AttRF2,193,3.1,6.8,6.5,3.4,5.9,2.8,3,3,4.24
4,AttR2,194,3.3,6.8,6.5,3.6,6.5,2.9,2,2,6.496
4,AttRF2,195,3.5,6.5,6.6,3.4,6.2,3.0,2,3,3.47
4,AttRF2,196,3.2,6.8,6.5,3.5,5.8,2.9,3,3,2.335
4,AttR2,197,3.4,6.5,6.7,3.2,6.7,2.6,3,2,5.343
4,AttF1,202,3.6,6.6,6.9,3.3,3.6,5.9,1,3,11.886
4,AttRF1,206,3.3,6.8,6.5,3.6,2.9,6.1,1,3,7.469
4,AttF1,207,3.3,6.8,6.5,3.6,3.3,6.4,2,2,21.438
4,AttF2,216,3.2,6.9,6.6,3.5,6.1,3.5,1,2,2.207
4,AttRF2,218,3.0,6.9,6.8,3.1,6.2,2.5,2,3,1.185
4,AttR1,220,3.6,6.6,6.9,3.3,3.2,6.6,2,1,2.342
4,AttF1,224,3.4,6.5,6.7,3.2,3.4,6.1,1,2,1.207
4,AttRF1,226,3.5,6.4,6.5,3.4,3.0,5.9,2,3,1.599
4,AttF2,227,3.5,6.4,6.7,3.2,6.3,3.2,2,1,2.079
4,AttR2,229,3.0,6.9,6.8,3.1,6.8,2.5,2,1,1.08
4,AttRF1,231,3.4,6.8,6.9,3.3,2.8,6.2,1,3,3.887
4,AttF2,233,3.5,6.6,6.7,3.4,6.0,3.4,3,3,4.147
4,AttF2,235,3.6,6.6,6.9,3.3,6.3,3.3,2,3,2.351
4,AttF2,236,3.5,6.6,6.5,3.6,5.9,3.6,2,3,1.807
4,AttR2,237,3.5,6.6,6.9,3.2,6.9,2.7,2,1,1.406
4,AttR2,238,3.1,6.8,6.5,3.4,6.5,2.9,3,2,4.567
4,AttF2,240,3.4,6.6,6.7,3.3,6.1,3.3,3,1,0.912
5,AttF1,2,3.3,6.8,6.5,3.6,3.3,6.4,1,1,48.786
5,AttF1,4,3.5,6.4,6.5,3.4,3.5,5.9,2,2,23.425
5,AttF2,5,3.5,6.6,6.9,3.2,6.4,3.2,2,1,65.941
5,AttRF1,6,3.5,6.5,6.6,3.4,3.0,5.8,3,2,31.777
5,AttRF1,7,3.3,6.6,6.4,3.5,2.7,5.9,2,2,22.066
5,AttF2,16,3.5,6.5,6.6,3.4,6.0,3.4,1,2,13.874
5,AttF2,17,3.5,6.6,6.7,3.4,6.0,3.4,1,2,39.204
5,AttF1,18,3.5,6.6,6.5,3.6,3.5,6.2,2,2,18.547
5,AttR2,21,3.5,6.4,6.5,3.4,6.5,2.7,2,2,14.354
5,AttR2,23,3.4,6.6,6.7,3.3,6.7,2.6,3,2,26.371
5,AttRF2,25,3.5,6.4,6.5,3.4,5.9,3.0,3,2,17.968
5,AttF1,27,3.4,6.6,6.7,3.3,3.4,6.1,3,2,20.399
5,AttR1,28,3.2,6.8,6.5,3.5,2.8,6.8,2,2,21.647
5,AttRF1,30,3.2,6.6,6.3,3.5,2.6,6.2,3,1,23.999
5,AttRF1,31,3.5,6.6,6.5,3.6,3.0,5.9,1,2,17.697
5,AttRF1,32,3.5,6.6,6.7,3.4,3.1,6.2,1,2,5.394
5,AttF2,33,3.4,6.6,6.7,3.3,6.1,3.3,1,2,3.487
5,AttR2,34,3.3,6.6,6.4,3.5,6.4,2.8,3,2,7.885
5,AttRF2,36,3.6,6.6,6.9,3.3,6.3,2.8,2,2,9.505
5,AttR1,37,3.3,6.6,6.4,3.5,2.9,6.6,3,1,4.896
5,AttRF2,38,3.0,6.9,6.8,3.1,6.2,2.5,3,1,19.921
5,AttR2,39,3.2,6.6,6.3,3.5,6.3,3.1,2,1,5.121
5,AttR1,42,3.4,6.5,6.7,3.2,2.8,6.5,2,2,12.046
5,AttRF1,44,3.3,6.8,6.5,3.6,2.9,6.1,2,1,19.312
5,AttRF2,45,3.2,6.8,6.5,3.5,5.8,2.9,3,1,16.624
5,AttRF2,46,3.2,6.9,6.6,3.5,6.1,3.1,2,1,7.053
5,AttR1,47,3.5,6.7,6.6,3.6,3.1,6.7,3,1,7.488
5,AttR1,54,3.3,6.6,6.4,3.5,2.7,6.6,1,1,8.143
5,AttR2,57,3.6,6.6,6.9,3.3,6.9,2.6,1,2,4.801
5,AttRF1,58,3.2,6.8,6.5,3.5,2.5,6.4,1,1,4.109
5,AttRF2,59,3.3,6.8,6.5,3.6,5.8,2.9,2,1,3.664
5,AttRF1,60,3.4,6.8,6.9,3.3,2.8,6.2,3,1,4.752
5,AttF2,67,3.2,6.6,6.3,3.5,5.7,3.5,1,1,16.127
5,AttR1,69,3.5,6.6,6.5,3.6,2.9,6.6,3,2,6.753
5,AttR1,71,3.1,6.8,6.5,3.4,2.5,6.8,3,1,6.911
5,AttRF2,72,3.5,6.6,6.9,3.2,6.2,2.7,3,2,5.759
5,AttRF2,74,3.4,6.8,6.9,3.3,6.2,2.8,2,2,5.503
5,AttF1,75,3.3,6.6,6.4,3.5,3.3,6.2,1,1,9.998
5,AttF2,76,3.3,6.8,6.5,3.6,5.9,3.6,3,2,5.169
5,AttF1,78,3.1,6.8,6.5,3.4,3.1,6.1,3,2,2.574
5,AttRF2,79,3.5,6.6,6.5,3.6,6.0,3.2,1,1,1.745
5,AttR2,84,3.1,6.8,6.5,3.4,6.5,2.9,2,1,2.85
5,AttR2,85,3.2,6.8,6.5,3.5,6.5,3.0,2,1,3.15
5,AttR2,89,3.3,6.8,6.5,3.6,6.5,3.1,3,1,8.294
5,AttF2,90,3.5,6.4,6.5,3.4,5.8,3.4,1,2,6.8
5,AttF2,91,3.2,6.8,6.5,3.5,6.1,3.5,2,1,4.686
5,AttF1,92,3.5,6.6,6.9,3.2,3.5,6.2,3,2,4.511
5,AttR1,93,3.5,6.5,6.6,3.4,2.9,6.5,3,1,3.616
5,AttR2,96,3.5,6.7,6.6,3.6,6.6,2.9,1,1,8.769
5,AttRF1,100,3.2,6.9,6.6,3.5,2.7,6.4,1,1,6.75
5,AttR2,101,3.0,6.9,6.8,3.1,6.8,2.5,2,2,7.168
5,AttF1,103,3.2,6.6,6.3,3.5,3.2,6.1,3,1,5.006
5,AttRF1,104,3.5,6.7,6.6,3.6,2.9,6.1,2,2,5.299
5,AttF1,106,3.4,6.8,6.9,3.3,3.4,6.1,3,2,5.709
5,AttF2,107,3.1,6.8,6.5,3.4,5.8,3.4,2,3,4.642
5,AttRF1,109,3.3,6.8,6.5,3.6,2.9,6.1,2,1,12.75
5,AttR2,110,3.5,6.5,6.6,3.4,6.6,3.0,3,2,6.722
5,AttR1,111,3.3,6.8,6.5,3.6,2.8,6.8,1,1,6.449
5,AttR2,114,3.4,6.5,6.7,3.2,6.7,2.6,3,2,8.191
5,AttF1,116,3.5,6.7,6.6,3.6,3.5,6.2,2,1,5.92
5,AttRF2,118,3.3,6.6,6.4,3.5,5.9,2.8,2,1,21.198
5,AttRF1,121,3.6,6.6,6.9,3.3,3.0,6.1,1,2,4.369
5,AttF1,122,3.5,6.5,6.6,3.4,3.5,5.9,3,2,5.944
5,AttR1,126,3.6,6.6,6.9,3.3,3.2,6.6,3,2,8.944
5,AttR1,127,3.5,6.6,6.7,3.4,3.0,6.6,3,2,13.903
5,AttF2,130,3.3,6.6,6.4,3.5,5.8,3.5,1,2,2.321
5,AttF2,131,3.5,6.4,6.7,3.2,6.3,3.2,1,2,14.338
5,AttF1,132,3.2,6.8,6.5,3.5,3.2,6.2,2,1,5.647
5,AttRF1,136,3.1,6.8,6.5,3.4,2.4,6.2,1,1,7.983
5,AttF1,137,3.5,6.6,6.7,3.4,3.5,6.0,2,1,4.657
5,AttR1,138,3.4,6.8,6.9,3.3,2.9,6.8,3,1,5.086
5,AttF1,139,3.2,6.9,6.6,3.5,3.2,6.3,3,1,6.851
5,AttR2,141,3.5,6.6,6.5,3.6,6.5,3.0,3,2,4.463
5,AttF2,144,3.4,6.5,6.7,3.2,6.2,3.2,3,1,3.201
5,AttF1,150,3.5,6.4,6.7,3.2,3.5,5.7,1,2,4.114
5,AttRF2,151,3.3,6.6,6.4,3.5,5.8,2.9,3,2,3.2
5,AttF1,153,3.6,6.6,6.9,3.3,3.6,5.9,3,2,4.079
5,AttR1,154,3.2,6.6,6.3,3.5,2.7,6.6,2,1,5.698
5,AttF2,155,3.2,6.9,6.6,3.5,6.1,3.5,3,1,6.975
5,AttRF1,156,3.5,6.4,6.7,3.2,2.9,5.9,1,1,10.927
5,AttR2,158,3.2,6.9,6.6,3.5,6.6,3.1,3,3,4.335
5,AttF2,161,3.6,6.6,6.9,3.3,6.3,3.3,2,2,2.83
5,AttR1,162,3.3,6.8,6.5,3.6,2.8,6.8,1,1,1.728
5,AttF1,164,3.3,6.6,6.4,3.5,3.3,6.1,1,2,9.23
5,AttR2,165,3.5,6.6,6.9,3.2,6.9,2.7,2,1,7.489
5,AttRF1,166,3.5,6.4,6.5,3.4,3.0,5.9,3,1,6.242
5,AttF1,168,3.3,6.8,6.5,3.6,3.3,6.4,1,1,5.426
5,AttRF1,169,3.0,6.9,6.8,3.1,2.4,6.3,3,3,5.345
5,AttF2,170,3.0,6.9,6.8,3.1,6.4,3.1,1,1,4.447
5,AttRF1,172,3.3,6.6,6.4,3.5,2.7,6.1,2,1,4.624
5,AttF1,174,3.0,6.9,6.8,3.1,3.0,6.5,3,1,5.745
5,AttR1,175,3.0,6.9,6.8,3.1,2.6,6.9,2,2,7.937
5,AttF2,180,3.3,6.6,6.4,3.5,5.8,3.5,3,2,7.153
5,AttR1,183,3.5,6.4,6.5,3.4,3.1,6.4,3,3,5.038
5,AttR1,184,3.5,6.6,6.9,3.2,3.1,6.6,2,2,6.033
5,AttRF2,185,3.1,6.8,6.5,3.4,5.9,2.8,2,1,17.436
5,AttRF2,186,3.5,6.5,6.6,3.4,6.2,3.0,1,3,5.07
5,AttRF2,187,3.5,6.4,6.7,3.2,6.1,2.7,3,1,5.984
5,AttF2,188,3.4,6.8,6.9,3.3,6.3,3.3,2,2,10.834
5,AttR1,190,3.5,6.4,6.7,3.2,2.8,6.4,2,2,6.926
5,AttF1,193,3.4,6.5,6.7,3.2,3.4,6.1,1,2,6.546
5,AttRF2,195,3.4,6.5,6.7,3.2,6.2,2.8,2,3,46.544
5,AttRF1,196,3.4,6.5,6.7,3.2,3.0,6.1,1,2,4.462
5,AttR1,202,3.2,6.9,6.6,3.5,2.6,6.9,2,1,9.249
5,AttF2,204,3.3,6.8,6.5,3.6,5.9,3.6,3,1,4.384
5,AttR2,205,3.5,6.6,6.7,3.4,6.7,3.0,1,2,2.753
5,AttRF2,207,3.5,6.6,6.7,3.4,6.1,2.7,3,1,0.816
5,AttRF2,209,3.3,6.8,6.5,3.6,5.8,3.1,3,3,3.456
5,AttF2,212,3.5,6.6,6.5,3.6,5.9,3.6,3,1,8.784
5,AttRF2,215,3.4,6.6,6.7,3.3,6.2,2.7,3,1,14.176
5,AttR2,222,3.3,6.8,6.5,3.6,6.5,2.9,2,2,4.944
5,AttRF1,226,3.5,6.6,6.9,3.2,2.8,5.9,2,2,7.359
5,AttRF1,227,3.4,6.6,6.7,3.3,2.9,6.0,2,2,8.081
5,AttR2,229,3.3,6.6,6.4,3.5,6.4,2.9,1,1,8.4
5,AttR1,231,3.4,6.6,6.7,3.3,2.9,6.6,2,1,5.456
5,AttF2,232,3.5,6.7,6.6,3.6,6.1,3.6,3,2,5.774
5,AttR2,235,3.5,6.4,6.7,3.2,6.7,2.6,3,2,8.356
5,AttR2,236,3.4,6.8,6.9,3.3,6.9,2.7,3,2,4.705
5,AttRF2,239,3.5,6.7,6.6,3.6,6.0,3.2,3,3,7.582
5,AttRF2,240,3.2,6.6,6.3,3.5,5.8,2.9,2,2,42.737
6,AttF2,1,3.4,6.5,6.7,3.2,6.2,3.2,2,1,76.725
6,AttF2,3,3.2,6.9,6.6,3.5,6.1,3.5,3,1,50.611
6,AttRF1,6,3.2,6.6,6.3,3.5,2.6,6.2,2,1,41.475
6,AttF1,7,3.5,6.5,6.6,3.4,3.5,5.9,3,2,14.451
6,AttRF1,13,3.4,6.5,6.7,3.2,3.0,6.1,3,2,37.682
6,AttRF1,14,3.2,6.8,6.5,3.5,2.5,6.4,3,1,64.756
6,AttR2,15,3.3,6.6,6.4,3.5,6.4,2.9,3,1,28.372
6,AttR2,17,3.4,6.6,6.7,3.3,6.7,2.6,1,2,22.067
6,AttR2,22,3.4,6.5,6.7,3.2,6.7,2.6,2,2,16.771
6,AttR1,23,3.5,6.7,6.6,3.6,3.1,6.7,2,1,15.731
6,AttF2,24,3.5,6.6,6.5,3.6,5.9,3.6,3,1,17.619
6,AttR1,25,3.5,6.6,6.9,3.2,3.1,6.6,1,2,17.664
6,AttF1,26,3.2,6.9,6.6,3.5,3.2,6.3,1,1,17.329
6,AttRF1,28,3.2,6.9,6.6,3.5,2.7,6.4,1,1,28.766
6,AttF2,29,3.5,6.7,6.6,3.6,6.1,3.6,3,1,11.534
6,AttR2,31,3.5,6.5,6.6,3.4,6.6,3.0,1,2,13.762
6,AttF1,33,3.0,6.9,6.8,3.1,3.0,6.5,3,1,17.009
6,AttR2,34,3.5,6.6,6.7,3.4,6.7,3.0,3,2,13.36
6,AttRF1,35,3.3,6.8,6.5,3.6,2.9,6.1,1,1,28.895
6,AttF1,36,3.3,6.6,6.4,3.5,3.3,6.1,3,1,20.225
6,AttR2,37,3.3,6.8,6.5,3.6,6.5,3.1,1,1,18.526
6,AttRF1,39,3.6,6.6,6.9,3.3,3.0,6.1,2,2,15.696
6,AttR1,42,3.5,6.6,6.5,3.6,2.9,6.6,2,1,14.449
6,AttR2,46,3.6,6.6,6.9,3.3,6.9,2.6,2,2,11.694
6,AttRF1,47,3.3,6.8,6.5,3.6,2.9,6.1,2,1,14.895
6,AttRF2,48,3.6,6.6,6.9,3.3,6.3,2.8,1,2,9.328
6,AttR2,50,3.5,6.4,6.5,3.4,6.5,2.7,2,2,8.752
6,AttF2,51,3.6,6.6,6.9,3.3,6.3,3.3,3,2,11.071
6,AttR1,52,3.3,6.8,6.5,3.6,2.8,6.8,1,1,23.918
6,AttR1,54,3.2,6.9,6.6,3.5,2.6,6.9,1,1,13.089
6,AttF2,55,3.5,6.5,6.6,3.4,6.0,3.4,1,2,13.359
6,AttR1,56,3.0,6.9,6.8,3.1,2.6,6.9,1,1,7.808
6,AttF2,57,3.3,6.6,6.4,3.5,5.8,3.5,1,1,19.536
6,AttR1,58,3.4,6.8,6.9,3.3,2.9,6.8,3,2,8.463
6,AttRF1,62,3.3,6.6,6.4,3.5,2.7,5.9,2,1,17.605
6,AttRF2,65,3.1,6.8,6.5,3.4,5.9,2.8,3,1,10.307
6,AttF1,67,3.4,6.5,6.7,3.2,3.4,6.1,2,2,10.816
6,AttRF2,72,3.5,6.4,6.5,3.4,5.9,3.0,1,2,13.73
6,AttRF2,73,3.5,6.6,6.5,3.6,6.0,3.2,1,1,11.006
6,AttRF1,75,3.5,6.4,6.7,3.2,2.9,5.9,2,2,36.622
6,AttF1,77,3.5,6.6,6.7,3.4,3.5,6.0,3,2,6.863
6,AttF2,78,3.4,6.8,6.9,3.3,6.3,3.3,2,2,14.975
6,AttR1,79,3.1,6.8,6.5,3.4,2.5,6.8,3,1,30.577
6,AttRF2,83,3.2,6.8,6.5,3.5,5.8,2.9,3,1,14.607
6,AttR1,84,3.4,6.6,6.7,3.3,2.9,6.6,2,2,28.193
6,AttRF2,85,3.5,6.5,6.6,3.4,6.2,3.0,3,2,9.007
6,AttF2,87,3.2,6.6,6.3,3.5,5.7,3.5,2,1,14.098
6,AttR1,91,3.6,6.6,6.9,3.3,3.2,6.6,3,2,8.511
6,AttF1,93,3.3,6.8,6.5,3.6,3.3,6.4,3,1,15.857
6,AttR2,95,3.3,6.8,6.5,3.6,6.5,2.9,1,1,16.162
6,AttR2,96,3.0,6.9,6.8,3.1,6.8,2.5,2,1,7.201
6,AttF1,98,3.5,6.7,6.6,3.6,3.5,6.2,3,1,16.562
6,AttR2,99,3.5,6.4,6.7,3.2,6.7,2.6,1,2,20.338
6,AttRF2,103,3.3,6.8,6.5,3.6,5.8,3.1,3,1,28.562
6,AttRF1,108,3.5,6.4,6.5,3.4,3.0,5.9,2,2,11.934
6,AttRF2,109,3.5,6.7,6.6,3.6,6.0,3.2,2,1,15.583
6,AttRF2,110,3.0,6.9,6.8,3.1,6.2,2.5,2,1,9.505
6,AttF2,111,3.5,6.6,6.9,3.2,6.4,3.2,2,2,13.585
6,AttRF1,114,3.3,6.6,6.4,3.5,2.7,6.1,1,1,9.296
6,AttR2,118,3.4,6.8,6.9,3.3,6.9,2.7,2,2,8.143
6,AttR2,122,3.2,6.6,6.3,3.5,6.3,3.1,1,1,17.766
6,AttRF2,125,3.4,6.5,6.7,3.2,6.2,2.8,3,2,14.511
6,AttR2,127,3.5,6.6,6.9,3.2,6.9,2.7,2,2,13.646
6,AttF2,131,3.5,6.6,6.7,3.4,6.0,3.4,3,2,11.185
6,AttRF2,137,3.3,6.6,6.4,3.5,5.9,2.8,3,1,9.905
6,AttRF2,138,3.5,6.6,6.7,3.4,6.1,2.7,2,2,9.518
6,AttRF2,141,3.2,6.9,6.6,3.5,6.1,3.1,3,1,15.84
6,AttR1,143,3.5,6.4,6.5,3.4,3.1,6.4,3,2,7.823
6,AttRF2,144,3.2,6.6,6.3,3.5,5.8,2.9,2,1,8.477
6,AttRF1,145,3.5,6.6,6.5,3.6,3.0,5.9,3,1,6.385
6,AttRF2,146,3.5,6.4,6.7,3.2,6.1,2.7,3,2,13.263
6,AttRF1,148,3.5,6.7,6.6,3.6,2.9,6.1,3,1,7.57
6,AttF1,150,3.4,6.6,6.7,3.3,3.4,6.1,1,2,7.299
6,AttRF1,151,3.5,6.6,6.9,3.2,2.8,5.9,1,2,15.792
6,AttF1,153,3.2,6.6,6.3,3.5,3.2,6.1,2,1,6.976
6,AttRF1,154,3.4,6.6,6.7,3.3,2.9,6.0,3,2,8.767
6,AttF1,157,3.5,6.6,6.9,3.2,3.5,6.2,3,2,10.478
6,AttF1,158,3.5,6.6,6.5,3.6,3.5,6.2,1,1,8.77
6,AttRF2,163,3.4,6.8,6.9,3.3,6.2,2.8,3,2,9.536
6,AttR2,165,3.5,6.6,6.5,3.6,6.5,3.0,2,1,6.625
6,AttR1,167,3.3,6.6,6.4,3.5,2.9,6.6,1,1,9.582
6,AttF2,168,3.5,6.4,6.7,3.2,6.3,3.2,1,1,11.135
6,AttF2,170,3.3,6.6,6.4,3.5,5.8,3.5,1,1,11.758
6,AttR2,173,3.1,6.8,6.5,3.4,6.5,2.9,2,1,6.162
6,AttRF1,174,3.5,6.6,6.7,3.4,3.1,6.2,2,2,16.831
6,AttF2,177,3.5,6.4,6.5,3.4,5.8,3.4,3,2,8.208
6,AttRF1,179,3.4,6.8,6.9,3.3,2.8,6.2,2,2,8.286
6,AttRF1,180,3.0,6.9,6.8,3.1,2.4,6.3,1,1,14.672
6,AttF2,182,3.2,6.8,6.5,3.5,6.1,3.5,1,1,14.407
6,AttR1,183,3.5,6.6,6.7,3.4,3.0,6.6,1,2,6.702
6,AttR1,184,3.5,6.4,6.7,3.2,2.8,6.4,1,2,7.234
6,AttF1,186,3.3,6.8,6.5,3.6,3.3,6.4,1,1,10.174
6,AttF1,187,3.3,6.6,6.4,3.5,3.3,6.2,1,1,6.594
6,AttRF2,188,3.5,6.6,6.9,3.2,6.2,2.7,1,2,7.277
6,AttF2,190,3.0,6.9,6.8,3.1,6.4,3.1,1,1,6.144
6,AttR2,191,3.2,6.9,6.6,3.5,6.6,3.1,1,1,7.199
6,AttF1,192,3.2,6.8,6.5,3.5,3.2,6.2,1,1,8.977
6,AttF1,193,3.5,6.4,6.5,3.4,3.5,5.9,1,2,7.967
6,AttRF2,195,3.4,6.6,6.7,3.3,6.2,2.7,2,2,11.985
6,AttF2,198,3.3,6.8,6.5,3.6,5.9,3.6,1,1,11.63
6,AttR1,199,3.5,6.5,6.6,3.4,2.9,6.5,1,2,7.248
6,AttR1,200,3.2,6.6,6.3,3.5,2.7,6.6,3,1,5.858
6,AttRF1,204,3.1,6.8,6.5,3.4,2.4,6.2,1,1,11.267
6,AttR1,207,3.3,6.8,6.5,3.6,2.8,6.8,3,1,6.11
6,AttF2,208,3.1,6.8,6.5,3.4,5.8,3.4,1,1,7.087
6,AttRF2,212,3.3,6.8,6.5,3.6,5.8,2.9,2,1,13.871
6,AttR1,215,3.2,6.8,6.5,3.5,2.8,6.8,1,1,11.983
6,AttF1,217,3.1,6.8,6.5,3.4,3.1,6.1,1,1,7.696
6,AttRF2,218,3.3,6.6,6.4,3.5,5.8,2.9,3,1,10.638
6,AttRF1,219,3.5,6.5,6.6,3.4,3.0,5.8,1,2,5.154
6,AttR2,221,3.5,6.7,6.6,3.6,6.6,2.9,1,1,9.633
6,AttR1,228,3.3,6.6,6.4,3.5,2.7,6.6,3,1,6.624
6,AttF2,229,3.4,6.6,6.7,3.3,6.1,3.3,2,2,6.958
6,AttR1,231,3.4,6.5,6.7,3.2,2.8,6.5,1,2,6.339
6,AttF1,232,3.5,6.4,6.7,3.2,3.5,5.7,1,2,7.229
6,AttF2,234,3.3,6.8,6.5,3.6,5.9,3.6,3,1,5.726
6,AttR2,235,3.2,6.8,6.5,3.5,6.5,3.0,1,1,7.455
6,AttF1,236,3.4,6.8,6.9,3.3,3.4,6.1,3,2,11.775
6,AttF1,237,3.6,6.6,6.9,3.3,3.6,5.9,3,2,6.114
6,AttR2,238,3.3,6.6,6.4,3.5,6.4,2.8,2,1,18.03
7,AttRF1,2,3.3,6.8,6.5,3.6,2.9,6.1,3,2,9.251
7,AttR2,7,3.5,6.6,6.9,3.2,6.9,2.7,1,3,2.931
7,AttF2,8,3.3,6.6,6.4,3.5,5.8,3.5,2,2,2.754
7,AttF2,9,3.5,6.4,6.7,3.2,6.3,3.2,1,2,3.828
7,AttF2,10,3.5,6.6,6.9,3.2,6.4,3.2,3,2,2.436
7,AttF1,14,3.2,6.9,6.6,3.5,3.2,6.3,2,2,5.266
7,AttRF2,18,3.2,6.8,6.5,3.5,5.8,2.9,2,2,1.394
7,AttR1,20,3.3,6.6,6.4,3.5,2.9,6.6,2,2,2.292
7,AttRF1,22,3.5,6.6,6.5,3.6,3.0,5.9,2,3,10.452
7,AttR2,23,3.0,6.9,6.8,3.1,6.8,2.5,2,2,5.442
7,AttRF1,25,3.4,6.5,6.7,3.2,3.0,6.1,2,1,5.328
7,AttF2,29,3.5,6.6,6.5,3.6,5.9,3.6,3,1,2.974
7,AttR2,32,3.5,6.4,6.5,3.4,6.5,2.7,2,2,2.367
7,AttRF1,33,3.3,6.6,6.4,3.5,2.7,6.1,1,2,2.352
7,AttRF2,34,3.5,6.6,6.7,3.4,6.1,2.7,1,2,3.265
7,AttF2,35,3.6,6.6,6.9,3.3,6.3,3.3,1,3,3.15
7,AttR1,37,3.4,6.6,6.7,3.3,2.9,6.6,3,1,7.681
7,AttF2,39,3.3,6.8,6.5,3.6,5.9,3.6,1,3,3.633
7,AttR1,40,3.5,6.6,6.9,3.2,3.1,6.6,1,1,2.607
7,AttRF2,43,3.0,6.9,6.8,3.1,6.2,2.5,1,3,4.83
7,AttR1,45,3.4,6.5,6.7,3.2,2.8,6.5,1,2,2.325
7,AttF2,47,3.4,6.5,6.7,3.2,6.2,3.2,3,3,2.671
7,AttR1,48,3.2,6.9,6.6,3.5,2.6,6.9,1,2,2.656
7,AttRF2,50,3.3,6.6,6.4,3.5,5.8,2.9,2,1,2.479
7,AttRF1,51,3.5,6.4,6.5,3.4,3.0,5.9,3,2,3.615
7,AttR2,57,3.5,6.7,6.6,3.6,6.6,2.9,1,1,7.534
7,AttF1,58,3.5,6.4,6.5,3.4,3.5,5.9,1,3,1.346
7,AttRF2,59,3.5,6.4,6.5,3.4,5.9,3.0,1,3,2.648
7,AttRF2,61,3.5,6.4,6.7,3.2,6.1,2.7,3,3,2.974
7,AttR1,62,3.2,6.6,6.3,3.5,2.7,6.6,1,2,2.598
7,AttF1,63,3.3,6.6,6.4,3.5,3.3,6.2,2,3,1.263
7,AttF2,65,3.0,6.9,6.8,3.1,6.4,3.1,1,2,5.881
7,AttRF1,69,3.5,6.7,6.6,3.6,2.9,6.1,3,1,7.543
7,AttR2,72,3.6,6.6,6.9,3.3,6.9,2.6,1,1,2.833
7,AttRF1,73,3.2,6.9,6.6,3.5,2.7,6.4,1,1,3.775
7,AttF2,75,3.2,6.8,6.5,3.5,6.1,3.5,1,1,3.182
7,AttR1,76,3.0,6.9,6.8,3.1,2.6,6.9,3,1,2.69
7,AttR2,77,3.3,6.6,6.4,3.5,6.4,2.8,1,1,1.603
7,AttRF2,78,3.4,6.6,6.7,3.3,6.2,2.7,1,2,1.887
7,AttR2,81,3.4,6.6,6.7,3.3,6.7,2.6,3,2,0.998
7,AttR2,84,3.3,6.8,6.5,3.6,6.5,3.1,2,3,2.64
7,AttRF1,85,3.5,6.5,6.6,3.4,3.0,5.8,2,1,1.969
7,AttRF2,89,3.2,6.9,6.6,3.5,6.1,3.1,3,2,1.952
7,AttR1,91,3.6,6.6,6.9,3.3,3.2,6.6,1,1,2.446
7,AttRF1,93,3.2,6.6,6.3,3.5,2.6,6.2,2,2,1.232
7,AttRF1,98,3.3,6.6,6.4,3.5,2.7,5.9,3,2,2.798
7,AttR2,99,3.2,6.9,6.6,3.5,6.6,3.1,1,3,1.586
7,AttF1,101,3.5,6.4,6.7,3.2,3.5,5.7,1,3,2.593
7,AttR1,102,3.4,6.8,6.9,3.3,2.9,6.8,1,2,4.031
7,AttF2,105,3.1,6.8,6.5,3.4,5.8,3.4,3,1,2.752
7,AttRF2,107,3.2,6.6,6.3,3.5,5.8,2.9,1,2,2.608
7,AttRF1,108,3.2,6.8,6.5,3.5,2.5,6.4,2,2,1.663
7,AttF2,111,3.5,6.6,6.7,3.4,6.0,3.4,2,2,1.631
7,AttRF2,112,3.5,6.6,6.9,3.2,6.2,2.7,1,2,1.936
7,AttF2,114,3.2,6.9,6.6,3.5,6.1,3.5,2,2,1.968
7,AttRF1,116,3.0,6.9,6.8,3.1,2.4,6.3,3,2,1.296
7,AttR2,118,3.5,6.5,6.6,3.4,6.6,3.0,2,2,2.407
7,AttF1,120,3.4,6.5,6.7,3.2,3.4,6.1,1,2,2.16
7,AttF1,121,3.0,6.9,6.8,3.1,3.0,6.5,1,2,1.904
7,AttR2,122,3.3,6.6,6.4,3.5,6.4,2.9,2,2,2.326
7,AttF1,123,3.5,6.6,6.5,3.6,3.5,6.2,2,1,2.321
7,AttF1,124,3.2,6.8,6.5,3.5,3.2,6.2,2,2,2.195
7,AttF1,125,3.3,6.6,6.4,3.5,3.3,6.1,3,2,1.901
7,AttRF2,126,3.4,6.5,6.7,3.2,6.2,2.8,3,1,2.494
7,AttR2,128,3.4,6.5,6.7,3.2,6.7,2.6,2,3,2.087
7,AttR1,129,3.1,6.8,6.5,3.4,2.5,6.8,2,2,1.471
7,AttRF1,130,3.5,6.4,6.7,3.2,2.9,5.9,1,1,0.823
7,AttF1,131,3.5,6.6,6.7,3.4,3.5,6.0,1,2,1.494
7,AttRF2,132,3.6,6.6,6.9,3.3,6.3,2.8,2,2,2.455
7,AttR2,133,3.1,6.8,6.5,3.4,6.5,2.9,2,2,2.383
7,AttR1,136,3.5,6.4,6.7,3.2,2.8,6.4,1,2,1.361
7,AttR1,138,3.5,6.7,6.6,3.6,3.1,6.7,2,2,1.822
7,AttRF1,139,3.6,6.6,6.9,3.3,3.0,6.1,3,2,1.584
7,AttF1,140,3.5,6.5,6.6,3.4,3.5,5.9,1,2,1.648
7,AttR1,141,3.5,6.4,6.5,3.4,3.1,6.4,1,2,2.208
7,AttR1,142,3.5,6.6,6.5,3.6,2.9,6.6,3,2,2.033
7,AttR2,149,3.5,6.6,6.5,3.6,6.5,3.0,1,2,2.272
7,AttF1,151,3.3,6.8,6.5,3.6,3.3,6.4,1,2,2.271
7,AttRF2,152,3.4,6.8,6.9,3.3,6.2,2.8,3,2,1.442
7,AttR1,155,3.3,6.8,6.5,3.6,2.8,6.8,3,2,1.275
7,AttF2,157,3.4,6.6,6.7,3.3,6.1,3.3,3,2,1.617
7,AttR2,158,3.2,6.8,6.5,3.5,6.5,3.0,2,2,2.274
7,AttF1,159,3.4,6.8,6.9,3.3,3.4,6.1,3,2,1.502
7,AttR2,161,3.2,6.6,6.3,3.5,6.3,3.1,2,1,3.95
7,AttF2,165,3.5,6.5,6.6,3.4,6.0,3.4,3,2,1.84
7,AttF1,166,3.1,6.8,6.5,3.4,3.1,6.1,1,3,2.512
7,AttRF1,169,3.4,6.6,6.7,3.3,2.9,6.0,2,1,6.208
7,AttR2,171,3.3,6.8,6.5,3.6,6.5,2.9,3,2,1.744
7,AttR1,173,3.3,6.8,6.5,3.6,2.8,6.8,1,3,2.247
7,AttRF2,174,3.5,6.7,6.6,3.6,6.0,3.2,3,2,2.176
7,AttF1,175,3.5,6.6,6.9,3.2,3.5,6.2,3,2,2.72
7,AttRF2,177,3.5,6.6,6.5,3.6,6.0,3.2,1,2,1.633
7,AttF2,185,3.4,6.8,6.9,3.3,6.3,3.3,1,3,4.775
7,AttR2,186,3.5,6.4,6.7,3.2,6.7,2.6,1,3,2.302
7,AttF2,188,3.5,6.7,6.6,3.6,6.1,3.6,2,2,1.872
7,AttF1,190,3.6,6.6,6.9,3.3,3.6,5.9,1,2,1.872
7,AttF1,191,3.4,6.6,6.7,3.3,3.4,6.1,3,1,1.454
7,AttRF2,192,3.3,6.8,6.5,3.6,5.8,2.9,2,3,1.861
7,AttRF1,195,3.1,6.8,6.5,3.4,2.4,6.2,1,1,3.586
7,AttRF1,198,3.4,6.8,6.9,3.3,2.8,6.2,1,2,2.734
7,AttRF2,207,3.5,6.5,6.6,3.4,6.2,3.0,1,2,3.248
7,AttR1,208,3.5,6.5,6.6,3.4,2.9,6.5,3,2,2.575
7,AttF2,210,3.3,6.8,6.5,3.6,5.9,3.6,2,3,4.05
7,AttRF2,212,3.3,6.6,6.4,3.5,5.9,2.8,2,2,2.942
7,AttF1,215,3.3,6.8,6.5,3.6,3.3,6.4,1,3,1.633
7,AttRF1,217,3.3,6.8,6.5,3.6,2.9,6.1,1,2,3.776
7,AttRF1,219,3.5,6.6,6.9,3.2,2.8,5.9,2,2,2.159
7,AttR1,220,3.3,6.6,6.4,3.5,2.7,6.6,2,2,3.648
7,AttR2,222,3.4,6.8,6.9,3.3,6.9,2.7,1,2,2.43
7,AttRF1,223,3.5,6.6,6.7,3.4,3.1,6.2,3,2,2.895
7,AttRF2,225,3.1,6.8,6.5,3.4,5.9,2.8,1,1,1.824
7,AttR2,227,3.5,6.6,6.7,3.4,6.7,3.0,1,3,1.855
7,AttRF2,228,3.3,6.8,6.5,3.6,5.8,3.1,1,2,2.287
7,AttF2,229,3.2,6.6,6.3,3.5,5.7,3.5,3,1,2.462
7,AttR1,230,3.2,6.8,6.5,3.5,2.8,6.8,1,1,3.888
7,AttF1,232,3.5,6.7,6.6,3.6,3.5,6.2,3,2,1.6
7,AttR1,233,3.5,6.6,6.7,3.4,3.0,6.6,1,3,2.27
7,AttF2,235,3.5,6.4,6.5,3.4,5.8,3.4,3,2,3.232
7,AttF1,236,3.2,6.6,6.3,3.5,3.2,6.1,1,1,1.505
7,AttF2,238,3.3,6.6,6.4,3.5,5.8,3.5,1,3,1.152
8,AttRF1,3,3.5,6.6,6.9,3.2,2.8,5.9,3,1,8.498
8,AttR1,5,3.5,6.6,6.5,3.6,2.9,6.6,2,2,30.387
8,AttRF1,6,3.2,6.6,6.3,3.5,2.6,6.2,2,2,15.553
8,AttR2,8,3.5,6.6,6.9,3.2,6.9,2.7,3,1,8.115
8,AttR1,10,3.0,6.9,6.8,3.1,2.6,6.9,1,1,11.281
8,AttF2,12,3.5,6.4,6.5,3.4,5.8,3.4,2,2,8.642
8,AttRF1,13,3.5,6.6,6.7,3.4,3.1,6.2,3,1,7.445
8,AttRF2,16,3.3,6.6,6.4,3.5,5.9,2.8,1,2,4.498
8,AttR1,22,3.6,6.6,6.9,3.3,3.2,6.6,3,2,2.578
8,AttRF2,23,3.2,6.6,6.3,3.5,5.8,2.9,1,2,5.174
8,AttRF1,25,3.0,6.9,6.8,3.1,2.4,6.3,3,2,6.337
8,AttF1,27,3.4,6.5,6.7,3.2,3.4,6.1,2,1,4.464
8,AttF2,28,3.5,6.5,6.6,3.4,6.0,3.4,3,3,9.375
8,AttRF2,29,3.5,6.6,6.5,3.6,6.0,3.2,2,2,2.69
8,AttF2,31,3.0,6.9,6.8,3.1,6.4,3.1,3,1,5.668
8,AttRF1,34,3.3,6.8,6.5,3.6,2.9,6.1,2,2,2.88
8,AttF2,36,3.5,6.6,6.5,3.6,5.9,3.6,1,2,7.344
8,AttRF2,38,3.6,6.6,6.9,3.3,6.3,2.8,3,2,4.335
8,AttF1,41,3.6,6.6,6.9,3.3,3.6,5.9,3,3,5.902
8,AttRF1,42,3.5,6.7,6.6,3.6,2.9,6.1,1,2,8.447
8,AttRF2,43,3.1,6.8,6.5,3.4,5.9,2.8,3,2,5.809
8,AttR2,44,3.3,6.8,6.5,3.6,6.5,3.1,1,2,3.872
8,AttF1,46,3.3,6.6,6.4,3.5,3.3,6.2,2,2,7.297
8,AttRF2,48,3.5,6.7,6.6,3.6,6.0,3.2,2,1,8.592
8,AttRF2,49,3.5,6.4,6.5,3.4,5.9,3.0,1,3,2.126
8,AttRF1,50,3.3,6.8,6.5,3.6,2.9,6.1,3,1,3.139
8,AttRF1,53,3.5,6.4,6.5,3.4,3.0,5.9,3,2,2.609
8,AttR1,55,3.2,6.6,6.3,3.5,2.7,6.6,3,2,2.449
8,AttRF2,59,3.4,6.8,6.9,3.3,6.2,2.8,2,2,1.712
8,AttR1,65,3.4,6.5,6.7,3.2,2.8,6.5,3,1,3.918
8,AttR1,66,3.3,6.8,6.5,3.6,2.8,6.8,1,2,2.516
8,AttRF2,68,3.3,6.8,6.5,3.6,5.8,3.1,2,1,4.96
8,AttR2,70,3.3,6.6,6.4,3.5,6.4,2.9,1,2,5.439
8,AttF1,71,3.5,6.4,6.5,3.4,3.5,5.9,1,2,17.792
8,AttR1,73,3.5,6.4,6.7,3.2,2.8,6.4,1,2,2.178
8,AttR2,74,3.4,6.6,6.7,3.3,6.7,2.6,3,1,3.311
8,AttRF2,75,3.5,6.6,6.9,3.2,6.2,2.7,3,1,3.617
8,AttR2,76,3.5,6.4,6.5,3.4,6.5,2.7,2,1,4.863
8,AttR1,77,3.5,6.5,6.6,3.4,2.9,6.5,1,3,0.845
8,AttRF2,80,3.0,6.9,6.8,3.1,6.2,2.5,3,1,4.943
8,AttRF2,82,3.4,6.5,6.7,3.2,6.2,2.8,3,2,7.121
8,AttR2,85,3.5,6.4,6.7,3.2,6.7,2.6,3,2,4.449
8,AttRF2,86,3.5,6.5,6.6,3.4,6.2,3.0,2,2,5.232
8,AttRF1,87,3.5,6.6,6.5,3.6,3.0,5.9,3,2,5.678
8,AttF2,89,3.3,6.8,6.5,3.6,5.9,3.6,1,1,4.286
8,AttF1,90,3.3,6.8,6.5,3.6,3.3,6.4,2,2,4.303
8,AttRF1,91,3.3,6.6,6.4,3.5,2.7,5.9,1,2,8.512
8,AttF2,92,3.4,6.8,6.9,3.3,6.3,3.3,2,1,8.066
8,AttF1,94,3.4,6.6,6.7,3.3,3.4,6.1,2,2,11.377
8,AttR2,98,3.2,6.8,6.5,3.5,6.5,3.0,3,3,4.144
8,AttR1,102,3.2,6.8,6.5,3.5,2.8,6.8,3,2,4.654
8,AttRF1,103,3.1,6.8,6.5,3.4,2.4,6.2,1,1,6.191
8,AttF1,104,3.2,6.6,6.3,3.5,3.2,6.1,1,2,4.577
8,AttR1,105,3.3,6.6,6.4,3.5,2.7,6.6,2,2,2.912
8,AttRF1,106,3.2,6.9,6.6,3.5,2.7,6.4,2,1,4.495
8,AttR2,107,3.4,6.8,6.9,3.3,6.9,2.7,3,1,4.941
8,AttRF2,108,3.5,6.6,6.7,3.4,6.1,2.7,2,1,4.898
8,AttR1,111,3.2,6.9,6.6,3.5,2.6,6.9,3,2,3.409
8,AttF1,115,3.5,6.6,6.9,3.2,3.5,6.2,3,2,3.439
8,AttF1,117,3.3,6.6,6.4,3.5,3.3,6.1,2,2,2.143
8,AttRF1,119,3.5,6.4,6.7,3.2,2.9,5.9,2,3,3.664
8,AttRF1,121,3.2,6.8,6.5,3.5,2.5,6.4,1,1,3.343
8,AttF2,123,3.5,6.4,6.7,3.2,6.3,3.2,2,2,2.817
8,AttRF2,125,3.2,6.9,6.6,3.5,6.1,3.1,1,2,3.538
8,AttR2,127,3.3,6.6,6.4,3.5,6.4,2.8,2,2,9.981
8,AttF1,129,3.5,6.4,6.7,3.2,3.5,5.7,1,2,2.72
8,AttF2,130,3.3,6.6,6.4,3.5,5.8,3.5,3,3,3.679
8,AttR1,131,3.4,6.6,6.7,3.3,2.9,6.6,1,1,4.896
8,AttF2,133,3.2,6.8,6.5,3.5,6.1,3.5,3,1,3.102
8,AttR1,134,3.1,6.8,6.5,3.4,2.5,6.8,3,3,2.273
8,AttF1,135,3.5,6.6,6.5,3.6,3.5,6.2,1,1,2.238
8,AttF1,136,3.5,6.7,6.6,3.6,3.5,6.2,2,2,3.887
8,AttR2,138,3.5,6.5,6.6,3.4,6.6,3.0,1,3,2.866
8,AttR1,140,3.5,6.6,6.7,3.4,3.0,6.6,3,1,3.23
8,AttF1,143,3.2,6.8,6.5,3.5,3.2,6.2,1,2,5.566
8,AttR2,144,3.6,6.6,6.9,3.3,6.9,2.6,3,1,3.121
8,AttR1,145,3.3,6.8,6.5,3.6,2.8,6.8,3,2,7.553
8,AttRF2,149,3.3,6.8,6.5,3.6,5.8,2.9,2,2,5.902
8,AttF2,150,3.4,6.6,6.7,3.3,6.1,3.3,3,1,5.44
8,AttF1,151,3.3,6.8,6.5,3.6,3.3,6.4,1,2,6.609
8,AttR2,154,3.5,6.6,6.5,3.6,6.5,3.0,2,1,8.668
8,AttRF2,157,3.5,6.4,6.7,3.2,6.1,2.7,1,2,5.216
8,AttR1,162,3.5,6.4,6.5,3.4,3.1,6.4,2,2,3.28
8,AttF2,163,3.3,6.6,6.4,3.5,5.8,3.5,2,2,3.632
8,AttRF2,164,3.3,6.6,6.4,3.5,5.8,2.9,1,2,4.335
8,AttRF1,165,3.3,6.6,6.4,3.5,2.7,6.1,3,2,2.977
8,AttR1,167,3.5,6.6,6.9,3.2,3.1,6.6,3,2,11.584
8,AttRF2,168,3.4,6.6,6.7,3.3,6.2,2.7,1,1,2.015
8,AttRF1,171,3.4,6.6,6.7,3.3,2.9,6.0,1,2,2.797
8,AttR2,172,3.1,6.8,6.5,3.4,6.5,2.9,1,1,14.401
8,AttR2,173,3.4,6.5,6.7,3.2,6.7,2.6,3,1,2.911
8,AttF2,174,3.1,6.8,6.5,3.4,5.8,3.4,3,3,6.449
8,AttF2,175,3.4,6.5,6.7,3.2,6.2,3.2,2,1,5.969
8,AttR2,176,3.3,6.8,6.5,3.6,6.5,2.9,3,1,7.167
8,AttRF1,182,3.6,6.6,6.9,3.3,3.0,6.1,2,1,25.494
8,AttR1,188,3.5,6.7,6.6,3.6,3.1,6.7,2,2,3.553
8,AttRF2,189,3.2,6.8,6.5,3.5,5.8,2.9,3,1,2.399
8,AttR1,195,3.3,6.6,6.4,3.5,2.9,6.6,3,1,2.785
8,AttF1,196,3.5,6.6,6.7,3.4,3.5,6.0,2,1,4.05
8,AttF2,199,3.5,6.7,6.6,3.6,6.1,3.6,1,2,17.344
8,AttF2,203,3.2,6.9,6.6,3.5,6.1,3.5,2,2,2.657
8,AttF1,205,3.1,6.8,6.5,3.4,3.1,6.1,2,2,2.096
8,AttF2,206,3.6,6.6,6.9,3.3,6.3,3.3,3,1,3.922
8,AttR2,207,3.2,6.9,6.6,3.5,6.6,3.1,2,1,7.104
8,AttR1,210,3.4,6.8,6.9,3.3,2.9,6.8,2,1,10.654
8,AttF1,213,3.5,6.5,6.6,3.4,3.5,5.9,3,1,2.819
8,AttR2,214,3.5,6.6,6.7,3.4,6.7,3.0,1,1,3.758
8,AttF2,217,3.2,6.6,6.3,3.5,5.7,3.5,1,3,3.662
8,AttRF1,218,3.4,6.5,6.7,3.2,3.0,6.1,1,1,2.594
8,AttF1,221,3.4,6.8,6.9,3.3,3.4,6.1,3,3,1.966
8,AttF2,222,3.5,6.6,6.9,3.2,6.4,3.2,1,3,4.307
8,AttF1,224,3.2,6.9,6.6,3.5,3.2,6.3,1,2,1.598
8,AttR2,225,3.5,6.7,6.6,3.6,6.6,2.9,2,2,4.142
8,AttR2,228,3.2,6.6,6.3,3.5,6.3,3.1,2,2,5.487
8,AttF1,229,3.0,6.9,6.8,3.1,3.0,6.5,1,2,4.159
8,AttF2,230,3.5,6.6,6.7,3.4,6.0,3.4,2,3,10.591
8,AttRF1,232,3.5,6.5,6.6,3.4,3.0,5.8,2,1,2.144
8,AttR2,233,3.0,6.9,6.8,3.1,6.8,2.5,3,1,2.352
8,AttF2,235,3.3,6.8,6.5,3.6,5.9,3.6,2,2,3.007
8,AttRF1,240,3.4,6.8,6.9,3.3,2.8,6.2,3,1,4.16
9,AttRF2,1,3.5,6.4,6.5,3.4,5.9,3.0,2,2,62.902
9,AttF1,2,3.3,6.8,6.5,3.6,3.3,6.4,1,2,27.268
9,AttR2,5,3.5,6.5,6.6,3.4,6.6,3.0,1,2,8.098
9,AttRF1,6,3.3,6.6,6.4,3.5,2.7,5.9,1,2,37.507
9,AttF2,7,3.1,6.8,6.5,3.4,5.8,3.4,3,2,8.114
9,AttRF1,8,3.5,6.6,6.5,3.6,3.0,5.9,3,1,9.795
9,AttF1,9,3.3,6.6,6.4,3.5,3.3,6.2,2,1,14.721
9,AttF1,10,3.5,6.6,6.7,3.4,3.5,6.0,2,1,7.347
9,AttF1,11,3.5,6.6,6.5,3.6,3.5,6.2,3,1,7.011
9,AttRF1,13,3.3,6.8,6.5,3.6,2.9,6.1,1,1,9.218
9,AttR1,14,3.5,6.4,6.7,3.2,2.8,6.4,3,1,7.601
9,AttR2,16,3.2,6.8,6.5,3.5,6.5,3.0,2,2,3.876
9,AttF2,17,3.6,6.6,6.9,3.3,6.3,3.3,3,2,7.185
9,AttRF1,18,3.0,6.9,6.8,3.1,2.4,6.3,3,1,6.979
9,AttF2,19,3.4,6.6,6.7,3.3,6.1,3.3,3,2,2.979
9,AttRF2,20,3.5,6.6,6.5,3.6,6.0,3.2,3,2,2.947
9,AttR1,21,3.1,6.8,6.5,3.4,2.5,6.8,3,1,7.171
9,AttRF2,22,3.4,6.8,6.9,3.3,6.2,2.8,2,2,4.593
9,AttR2,25,3.3,6.8,6.5,3.6,6.5,2.9,1,2,5.504
9,AttF2,29,3.2,6.8,6.5,3.5,6.1,3.5,3,2,6.063
9,AttRF2,30,3.5,6.4,6.7,3.2,6.1,2.7,3,2,3.858
9,AttF1,31,3.6,6.6,6.9,3.3,3.6,5.9,3,1,6.146
9,AttRF1,32,3.2,6.6,6.3,3.5,2.6,6.2,2,1,15.182
9,AttR2,34,3.0,6.9,6.8,3.1,6.8,2.5,3,2,7.039
9,AttF1,36,3.1,6.8,6.5,3.4,3.1,6.1,1,1,3.568
9,AttRF1,37,3.2,6.8,6.5,3.5,2.5,6.4,2,1,3.921
9,AttF1,39,3.5,6.7,6.6,3.6,3.5,6.2,1,1,5.565
9,AttRF2,40,3.2,6.9,6.6,3.5,6.1,3.1,3,2,3.395
9,AttRF1,41,3.5,6.6,6.9,3.2,2.8,5.9,1,1,6.719
9,AttRF1,42,3.1,6.8,6.5,3.4,2.4,6.2,2,1,4.668
9,AttRF2,45,3.1,6.8,6.5,3.4,5.9,2.8,1,2,4.079
9,AttR1,46,3.3,6.6,6.4,3.5,2.7,6.6,3,1,3.217
9,AttRF2,48,3.3,6.8,6.5,3.6,5.8,3.1,2,2,3.969
9,AttF2,51,3.5,6.7,6.6,3.6,6.1,3.6,3,2,5.901
9,AttF2,53,3.0,6.9,6.8,3.1,6.4,3.1,2,2,3.104
9,AttF1,55,3.0,6.9,6.8,3.1,3.0,6.5,3,1,7.79
9,AttR2,59,3.5,6.4,6.7,3.2,6.7,2.6,1,2,2.386
9,AttRF2,60,3.2,6.8,6.5,3.5,5.8,2.9,2,2,3.694
9,AttRF1,62,3.5,6.4,6.5,3.4,3.0,5.9,1,1,3.847
9,AttR1,64,3.2,6.8,6.5,3.5,2.8,6.8,3,1,2.928
9,AttRF2,65,3.5,6.6,6.7,3.4,6.1,2.7,1,2,13.758
9,AttR2,66,3.3,6.6,6.4,3.5,6.4,2.9,2,2,2.177
9,AttF2,67,3.5,6.6,6.9,3.2,6.4,3.2,3,2,2.542
9,AttF2,68,3.2,6.9,6.6,3.5,6.1,3.5,3,2,2.062
9,AttRF2,69,3.3,6.8,6.5,3.6,5.8,2.9,1,2,2.29
9,AttF2,70,3.5,6.4,6.7,3.2,6.3,3.2,3,2,2.482
9,AttR1,72,3.5,6.6,6.5,3.6,2.9,6.6,3,1,4.353
9,AttR1,74,3.3,6.8,6.5,3.6,2.8,6.8,1,1,6.177
9,AttF1,77,3.3,6.8,6.5,3.6,3.3,6.4,2,1,8.304
9,AttR2,79,3.5,6.4,6.5,3.4,6.5,2.7,3,2,2.0
9,AttF2,80,3.3,6.8,6.5,3.6,5.9,3.6,2,2,2.366
9,AttR2,81,3.2,6.6,6.3,3.5,6.3,3.1,1,2,2.112
9,AttF2,82,3.5,6.6,6.5,3.6,5.9,3.6,1,2,2.498
9,AttRF1,83,3.5,6.5,6.6,3.4,3.0,5.8,1,1,4.431
9,AttRF1,86,3.2,6.9,6.6,3.5,2.7,6.4,3,1,2.736
9,AttR1,88,3.0,6.9,6.8,3.1,2.6,6.9,1,1,3.678
9,AttRF1,89,3.4,6.5,6.7,3.2,3.0,6.1,1,1,2.287
9,AttF2,95,3.3,6.6,6.4,3.5,5.8,3.5,1,2,3.983
9,AttF1,96,3.4,6.8,6.9,3.3,3.4,6.1,3,1,3.232
9,AttRF2,100,3.5,6.6,6.9,3.2,6.2,2.7,1,2,1.791
9,AttRF2,104,3.5,6.5,6.6,3.4,6.2,3.0,1,2,2.849
9,AttF2,105,3.3,6.8,6.5,3.6,5.9,3.6,3,2,3.007
9,AttR1,107,3.5,6.6,6.7,3.4,3.0,6.6,1,1,2.143
9,AttF1,112,3.3,6.6,6.4,3.5,3.3,6.1,3,1,2.993
9,AttR2,115,3.4,6.5,6.7,3.2,6.7,2.6,3,2,2.24
9,AttRF1,116,3.4,6.6,6.7,3.3,2.9,6.0,2,1,2.511
9,AttR1,123,3.5,6.4,6.5,3.4,3.1,6.4,2,1,5.62
9,AttR2,124,3.5,6.7,6.6,3.6,6.6,2.9,3,2,2.783
9,AttF1,125,3.2,6.8,6.5,3.5,3.2,6.2,3,1,4.192
9,AttR1,126,3.5,6.6,6.9,3.2,3.1,6.6,3,1,1.997
9,AttR2,128,3.4,6.6,6.7,3.3,6.7,2.6,3,2,2.05
9,AttRF1,130,3.3,6.8,6.5,3.6,2.9,6.1,1,1,2.177
9,AttR1,135,3.3,6.8,6.5,3.6,2.8,6.8,2,1,3.199
9,AttF1,138,3.4,6.5,6.7,3.2,3.4,6.1,2,1,2.269
9,AttRF2,139,3.3,6.6,6.4,3.5,5.8,2.9,1,2,2.975
9,AttR2,141,3.5,6.6,6.5,3.6,6.5,3.0,2,2,2.366
9,AttRF2,143,3.3,6.6,6.4,3.5,5.9,2.8,2,2,2.079
9,AttR2,144,3.3,6.6,6.4,3.5,6.4,2.8,2,2,7.184
9,AttF1,146,3.2,6.6,6.3,3.5,3.2,6.1,2,1,2.368
9,AttR2,149,3.3,6.8,6.5,3.6,6.5,3.1,2,2,5.266
9,AttF2,155,3.5,6.6,6.7,3.4,6.0,3.4,2,2,3.902
9,AttRF2,157,3.5,6.7,6.6,3.6,6.0,3.2,2,2,2.24
9,AttR1,159,3.4,6.6,6.7,3.3,2.9,6.6,3,1,2.178
9,AttR1,161,3.4,6.8,6.9,3.3,2.9,6.8,1,1,1.903
9,AttR2,163,3.6,6.6,6.9,3.3,6.9,2.6,1,2,2.927
9,AttF1,167,3.5,6.6,6.9,3.2,3.5,6.2,3,1,2.223
9,AttR1,168,3.2,6.9,6.6,3.5,2.6,6.9,1,1,2.287
9,AttRF1,169,3.3,6.6,6.4,3.5,2.7,6.1,2,1,3.119
9,AttR1,174,3.5,6.7,6.6,3.6,3.1,6.7,1,1,2.527
9,AttR2,175,3.5,6.6,6.7,3.4,6.7,3.0,1,2,3.055
9,AttRF2,176,3.6,6.6,6.9,3.3,6.3,2.8,1,2,2.688
9,AttF2,180,3.2,6.6,6.3,3.5,5.7,3.5,1,2,6.93
9,AttRF2,182,3.4,6.6,6.7,3.3,6.2,2.7,3,2,4.727
9,AttF2,184,3.5,6.4,6.5,3.4,5.8,3.4,2,2,2.527
9,AttF2,185,3.5,6.5,6.6,3.4,6.0,3.4,3,2,2.383
9,AttF2,186,3.4,6.5,6.7,3.2,6.2,3.2,2,2,2.177
9,AttF1,190,3.5,6.4,6.7,3.2,3.5,5.7,3,1,3.743
9,AttRF1,196,3.6,6.6,6.9,3.3,3.0,6.1,2,1,3.856
9,AttF1,197,3.5,6.5,6.6,3.4,3.5,5.9,3,1,2.784
9,AttRF2,198,3.4,6.5,6.7,3.2,6.2,2.8,3,2,3.038
9,AttF1,200,3.4,6.6,6.7,3.3,3.4,6.1,2,1,2.096
9,AttRF1,201,3.4,6.8,6.9,3.3,2.8,6.2,2,1,2.479
9,AttR1,202,3.5,6.5,6.6,3.4,2.9,6.5,1,1,2.144
9,AttR1,203,3.4,6.5,6.7,3.2,2.8,6.5,1,1,2.239
9,AttR1,206,3.2,6.6,6.3,3.5,2.7,6.6,1,1,1.857
9,AttR1,207,3.3,6.6,6.4,3.5,2.9,6.6,2,1,2.016
9,AttRF1,208,3.5,6.6,6.7,3.4,3.1,6.2,2,1,2.029
9,AttF1,212,3.5,6.4,6.5,3.4,3.5,5.9,1,1,2.303
9,AttF2,213,3.4,6.8,6.9,3.3,6.3,3.3,1,2,2.273
9,AttF1,215,3.2,6.9,6.6,3.5,3.2,6.3,3,1,1.713
9,AttR2,219,3.5,6.6,6.9,3.2,6.9,2.7,2,2,1.632
9,AttF2,225,3.3,6.6,6.4,3.5,5.8,3.5,2,2,1.664
9,AttR1,226,3.6,6.6,6.9,3.3,3.2,6.6,2,1,3.87
9,AttRF2,230,3.0,6.9,6.8,3.1,6.2,2.5,1,2,2.957
9,AttRF1,233,3.5,6.7,6.6,3.6,2.9,6.1,3,1,3.826
9,AttR2,234,3.2,6.9,6.6,3.5,6.6,3.1,1,2,1.823
9,AttR2,235,3.1,6.8,6.5,3.4,6.5,2.9,1,2,1.327
9,AttRF1,236,3.5,6.4,6.7,3.2,2.9,5.9,3,1,2.357
9,AttRF2,237,3.2,6.6,6.3,3.5,5.8,2.9,1,2,2.064
9,AttR2,239,3.4,6.8,6.9,3.3,6.9,2.7,1,2,1.488
10,AttF2,2,3.5,6.4,6.7,3.2,6.3,3.2,2,2,16.388
10,AttR1,3,3.0,6.9,6.8,3.1,2.6,6.9,2,1,17.954
10,AttF2,4,3.4,6.8,6.9,3.3,6.3,3.3,3,2,16.691
10,AttF2,5,3.3,6.8,6.5,3.6,5.9,3.6,2,2,12.402
10,AttR1,11,3.4,6.5,6.7,3.2,2.8,6.5,2,1,15.571
10,AttR2,18,3.2,6.6,6.3,3.5,6.3,3.1,2,2,24.641
10,AttR2,19,3.5,6.5,6.6,3.4,6.6,3.0,1,2,6.083
10,AttF1,20,3.5,6.6,6.7,3.4,3.5,6.0,3,2,8.034
10,AttRF1,21,3.2,6.8,6.5,3.5,2.5,6.4,3,2,15.971
10,AttR2,23,3.2,6.9,6.6,3.5,6.6,3.1,1,1,5.603
10,AttR2,24,3.5,6.4,6.5,3.4,6.5,2.7,1,1,7.01
10,AttRF1,25,3.2,6.9,6.6,3.5,2.7,6.4,1,1,3.949
10,AttRF1,26,3.3,6.6,6.4,3.5,2.7,5.9,3,1,5.202
10,AttRF1,31,3.5,6.4,6.5,3.4,3.0,5.9,3,2,10.879
10,AttRF1,35,3.4,6.8,6.9,3.3,2.8,6.2,3,1,8.848
10,AttRF1,36,3.3,6.6,6.4,3.5,2.7,6.1,3,2,23.102
10,AttRF2,37,3.5,6.4,6.5,3.4,5.9,3.0,3,2,6.818
10,AttF1,38,3.5,6.6,6.9,3.2,3.5,6.2,2,2,7.244
10,AttR1,39,3.5,6.7,6.6,3.6,3.1,6.7,1,2,4.817
10,AttRF1,40,3.5,6.6,6.9,3.2,2.8,5.9,3,2,6.641
10,AttF2,41,3.5,6.7,6.6,3.6,6.1,3.6,3,1,7.984
10,AttF2,44,3.6,6.6,6.9,3.3,6.3,3.3,1,1,9.775
10,AttR1,46,3.4,6.6,6.7,3.3,2.9,6.6,1,2,4.319
10,AttRF2,47,3.5,6.7,6.6,3.6,6.0,3.2,1,1,8.432
10,AttR2,48,3.6,6.6,6.9,3.3,6.9,2.6,1,2,3.345
10,AttRF1,50,3.5,6.7,6.6,3.6,2.9,6.1,3,1,16.224
10,AttRF2,53,3.4,6.8,6.9,3.3,6.2,2.8,1,1,13.764
10,AttF1,55,3.5,6.7,6.6,3.6,3.5,6.2,2,1,25.666
10,AttF2,56,3.3,6.8,6.5,3.6,5.9,3.6,1,1,2.863
10,AttRF1,58,3.2,6.6,6.3,3.5,2.6,6.2,3,2,8.37
10,AttR2,59,3.4,6.8,6.9,3.3,6.9,2.7,1,1,3.632
10,AttF1,62,3.5,6.4,6.7,3.2,3.5,5.7,1,2,13.094
10,AttR2,66,3.5,6.6,6.5,3.6,6.5,3.0,3,1,6.206
10,AttR2,67,3.5,6.6,6.7,3.4,6.7,3.0,3,2,5.521
10,AttR1,69,3.6,6.6,6.9,3.3,3.2,6.6,1,2,8.703
10,AttF2,70,3.5,6.5,6.6,3.4,6.0,3.4,3,1,7.28
10,AttF1,73,3.0,6.9,6.8,3.1,3.0,6.5,1,1,5.937
10,AttRF2,74,3.3,6.6,6.4,3.5,5.8,2.9,2,1,8.835
10,AttR1,75,3.2,6.9,6.6,3.5,2.6,6.9,2,2,6.366
10,AttR1,76,3.5,6.6,6.9,3.2,3.1,6.6,3,1,5.747
10,AttF1,80,3.5,6.5,6.6,3.4,3.5,5.9,1,2,8.623
10,AttRF1,81,3.0,6.9,6.8,3.1,2.4,6.3,3,2,13.198
10,AttR1,87,3.1,6.8,6.5,3.4,2.5,6.8,1,1,6.127
10,AttR1,89,3.5,6.6,6.5,3.6,2.9,6.6,1,1,9.072
10,AttRF2,97,3.5,6.6,6.9,3.2,6.2,2.7,2,2,8.784
10,AttF1,100,3.1,6.8,6.5,3.4,3.1,6.1,3,1,5.775
10,AttR1,102,3.2,6.6,6.3,3.5,2.7,6.6,1,1,9.072
10,AttF2,104,3.5,6.6,6.9,3.2,6.4,3.2,2,2,8.736
10,AttRF2,106,3.5,6.6,6.5,3.6,6.0,3.2,3,1,8.482
10,AttR1,108,3.3,6.6,6.4,3.5,2.9,6.6,2,2,8.511
10,AttRF2,109,3.3,6.8,6.5,3.6,5.8,2.9,3,1,8.192
10,AttF2,111,3.0,6.9,6.8,3.1,6.4,3.1,2,1,12.162
10,AttRF2,112,3.2,6.8,6.5,3.5,5.8,2.9,2,1,11.455
10,AttRF1,115,3.5,6.6,6.7,3.4,3.1,6.2,3,2,11.219
10,AttR1,119,3.3,6.6,6.4,3.5,2.7,6.6,3,1,5.727
10,AttF1,121,3.4,6.5,6.7,3.2,3.4,6.1,2,2,7.698
10,AttF2,122,3.3,6.6,6.4,3.5,5.8,3.5,2,1,7.433
10,AttR2,123,3.1,6.8,6.5,3.4,6.5,2.9,2,2,4.366
10,AttF1,124,3.2,6.6,6.3,3.5,3.2,6.1,1,1,19.327
10,AttR2,126,3.3,6.6,6.4,3.5,6.4,2.9,2,1,9.44
10,AttR1,127,3.3,6.8,6.5,3.6,2.8,6.8,3,1,7.663
10,AttF2,130,3.1,6.8,6.5,3.4,5.8,3.4,1,1,7.426
10,AttRF1,138,3.5,6.6,6.5,3.6,3.0,5.9,3,1,7.104
10,AttR1,139,3.5,6.4,6.7,3.2,2.8,6.4,3,2,7.248
10,AttRF2,142,3.4,6.5,6.7,3.2,6.2,2.8,3,2,6.593
10,AttF2,145,3.3,6.6,6.4,3.5,5.8,3.5,3,2,11.072
10,AttF2,146,3.2,6.9,6.6,3.5,6.1,3.5,2,1,5.952
10,AttR1,147,3.5,6.6,6.7,3.4,3.0,6.6,1,2,4.99
10,AttF1,150,3.5,6.4,6.5,3.4,3.5,5.9,3,2,10.99
10,AttR2,152,3.4,6.6,6.7,3.3,6.7,2.6,1,2,5.457
10,AttF1,154,3.4,6.6,6.7,3.3,3.4,6.1,3,2,6.644
10,AttF1,155,3.3,6.8,6.5,3.6,3.3,6.4,2,1,4.883
10,AttF1,157,3.6,6.6,6.9,3.3,3.6,5.9,3,2,4.047
10,AttR2,160,3.3,6.8,6.5,3.6,6.5,2.9,1,1,5.36
10,AttR2,163,3.4,6.5,6.7,3.2,6.7,2.6,1,2,7.793
10,AttRF1,164,3.4,6.6,6.7,3.3,2.9,6.0,2,2,10.849
10,AttRF1,169,3.5,6.4,6.7,3.2,2.9,5.9,3,2,7.487
10,AttF1,171,3.5,6.6,6.5,3.6,3.5,6.2,1,1,6.351
10,AttR2,172,3.5,6.6,6.9,3.2,6.9,2.7,2,2,6.77
10,AttR2,175,3.2,6.8,6.5,3.5,6.5,3.0,2,1,3.616
10,AttR2,176,3.3,6.6,6.4,3.5,6.4,2.8,3,1,3.888
10,AttF1,178,3.3,6.8,6.5,3.6,3.3,6.4,3,2,6.258
10,AttR2,182,3.3,6.8,6.5,3.6,6.5,3.1,2,1,4.887
10,AttRF2,183,3.3,6.6,6.4,3.5,5.9,2.8,1,1,5.297
10,AttRF2,184,3.2,6.6,6.3,3.5,5.8,2.9,1,1,3.309
10,AttR1,188,3.5,6.4,6.5,3.4,3.1,6.4,3,2,8.559
10,AttF1,189,3.2,6.8,6.5,3.5,3.2,6.2,3,1,5.552
10,AttR2,190,3.0,6.9,6.8,3.1,6.8,2.5,2,1,12.224
10,AttR1,191,3.2,6.8,6.5,3.5,2.8,6.8,2,1,3.216
10,AttRF2,193,3.6,6.6,6.9,3.3,6.3,2.8,2,1,7.665
10,AttF2,194,3.5,6.6,6.7,3.4,6.0,3.4,1,2,13.776
10,AttRF1,195,3.5,6.5,6.6,3.4,3.0,5.8,1,2,6.768
10,AttR2,196,3.5,6.7,6.6,3.6,6.6,2.9,3,1,5.183
10,AttF1,198,3.3,6.6,6.4,3.5,3.3,6.1,1,1,6.512
10,AttF1,200,3.3,6.6,6.4,3.5,3.3,6.2,2,2,5.553
10,AttR2,202,3.5,6.4,6.7,3.2,6.7,2.6,2,2,7.502
10,AttRF1,203,3.3,6.8,6.5,3.6,2.9,6.1,3,1,1.823
10,AttRF1,204,3.3,6.8,6.5,3.6,2.9,6.1,1,1,4.367
10,AttRF2,205,3.4,6.6,6.7,3.3,6.2,2.7,1,2,9.422
10,AttF1,206,3.4,6.8,6.9,3.3,3.4,6.1,3,1,5.008
10,AttRF2,208,3.0,6.9,6.8,3.1,6.2,2.5,1,2,2.143
10,AttRF2,210,3.3,6.8,6.5,3.6,5.8,3.1,3,1,3.378
10,AttRF2,211,3.5,6.5,6.6,3.4,6.2,3.0,1,1,5.47
10,AttF2,212,3.5,6.6,6.5,3.6,5.9,3.6,3,2,3.391
10,AttRF2,214,3.5,6.4,6.7,3.2,6.1,2.7,2,2,4.099
10,AttF1,217,3.2,6.9,6.6,3.5,3.2,6.3,3,2,4.751
10,AttRF2,220,3.1,6.8,6.5,3.4,5.9,2.8,1,1,5.57
10,AttRF1,221,3.4,6.5,6.7,3.2,3.0,6.1,1,2,4.241
10,AttF2,222,3.4,6.6,6.7,3.3,6.1,3.3,2,2,2.673
10,AttF2,223,3.4,6.5,6.7,3.2,6.2,3.2,2,1,2.818
10,AttRF2,225,3.5,6.6,6.7,3.4,6.1,2.7,2,1,2.399
10,AttR1,228,3.4,6.8,6.9,3.3,2.9,6.8,3,2,4.528
10,AttRF1,229,3.1,6.8,6.5,3.4,2.4,6.2,1,1,5.902
10,AttR1,230,3.5,6.5,6.6,3.4,2.9,6.5,1,2,4.781
10,AttF2,234,3.2,6.6,6.3,3.5,5.7,3.5,3,3,2.687
10,AttRF1,235,3.6,6.6,6.9,3.3,3.0,6.1,2,1,3.454
10,AttR1,236,3.3,6.8,6.5,3.6,2.8,6.8,1,1,4.446
10,AttRF2,237,3.2,6.9,6.6,3.5,6.1,3.1,1,2,2.671
10,AttF2,238,3.5,6.4,6.5,3.4,5.8,3.4,3,2,5.49
10,AttF2,239,3.2,6.8,6.5,3.5,6.1,3.5,1,2,4.16
11,AttF1,1,3.5,6.6,6.5,3.6,3.5,6.2,3,2,106.63
11,AttRF1,3,3.3,6.6,6.4,3.5,2.7,5.9,3,2,13.443
11,AttR1,4,3.2,6.9,6.6,3.5,2.6,6.9,3,1,10.609
11,AttR1,6,3.3,6.6,6.4,3.5,2.9,6.6,1,2,13.204
11,AttR1,8,3.2,6.8,6.5,3.5,2.8,6.8,2,1,7.332
11,AttRF1,10,3.4,6.5,6.7,3.2,3.0,6.1,3,2,6.707
11,AttR1,17,3.3,6.8,6.5,3.6,2.8,6.8,2,2,9.475
11,AttR1,18,3.5,6.5,6.6,3.4,2.9,6.5,2,1,6.512
11,AttRF1,19,3.3,6.8,6.5,3.6,2.9,6.1,1,2,6.995
11,AttF2,21,3.2,6.6,6.3,3.5,5.7,3.5,1,1,9.859
11,AttF1,22,3.4,6.8,6.9,3.3,3.4,6.1,3,1,10.435
11,AttF1,23,3.1,6.8,6.5,3.4,3.1,6.1,1,1,5.952
11,AttR2,25,3.4,6.6,6.7,3.3,6.7,2.6,1,2,6.691
11,AttR2,27,3.4,6.8,6.9,3.3,6.9,2.7,2,2,6.931
11,AttF2,28,3.2,6.8,6.5,3.5,6.1,3.5,3,1,9.088
11,AttF1,29,3.4,6.5,6.7,3.2,3.4,6.1,3,2,6.479
11,AttF2,32,3.3,6.8,6.5,3.6,5.9,3.6,1,1,6.559
11,AttRF2,35,3.1,6.8,6.5,3.4,5.9,2.8,1,2,5.981
11,AttF1,37,3.3,6.8,6.5,3.6,3.3,6.4,3,1,5.085
11,AttR1,41,3.2,6.6,6.3,3.5,2.7,6.6,1,1,9.538
11,AttR2,43,3.2,6.8,6.5,3.5,6.5,3.0,2,1,6.337
11,AttRF2,46,3.4,6.6,6.7,3.3,6.2,2.7,1,2,5.183
11,AttRF1,47,3.6,6.6,6.9,3.3,3.0,6.1,3,2,4.784
11,AttR2,48,3.3,6.6,6.4,3.5,6.4,2.9,3,2,6.912
11,AttF1,50,3.2,6.8,6.5,3.5,3.2,6.2,1,1,8.156
11,AttF2,51,3.4,6.6,6.7,3.3,6.1,3.3,2,2,4.433
11,AttF2,53,3.4,6.8,6.9,3.3,6.3,3.3,2,2,13.216
11,AttRF1,54,3.2,6.8,6.5,3.5,2.5,6.4,3,1,7.166
11,AttRF1,57,3.4,6.8,6.9,3.3,2.8,6.2,1,2,14.496
11,AttRF1,58,3.2,6.9,6.6,3.5,2.7,6.4,1,1,6.302
11,AttF1,59,3.5,6.5,6.6,3.4,3.5,5.9,2,1,6.253
11,AttF2,61,3.5,6.6,6.9,3.2,6.4,3.2,2,2,6.413
11,AttRF2,63,3.2,6.6,6.3,3.5,5.8,2.9,2,2,5.328
11,AttRF2,64,3.5,6.6,6.9,3.2,6.2,2.7,1,2,12.047
11,AttRF1,65,3.3,6.6,6.4,3.5,2.7,6.1,2,2,5.058
11,AttRF1,66,3.4,6.6,6.7,3.3,2.9,6.0,3,2,7.711
11,AttR1,67,3.0,6.9,6.8,3.1,2.6,6.9,2,2,5.135
11,AttRF2,71,3.5,6.6,6.5,3.6,6.0,3.2,2,2,7.968
11,AttR2,72,3.3,6.8,6.5,3.6,6.5,3.1,2,1,6.897
11,AttRF2,74,3.3,6.6,6.4,3.5,5.8,2.9,2,2,3.152
11,AttRF1,76,3.0,6.9,6.8,3.1,2.4,6.3,3,2,6.463
11,AttF2,77,3.0,6.9,6.8,3.1,6.4,3.1,2,2,7.361
11,AttRF2,78,3.5,6.4,6.7,3.2,6.1,2.7,3,2,4.992
11,AttR2,79,3.4,6.5,6.7,3.2,6.7,2.6,1,2,7.009
11,AttR2,80,3.6,6.6,6.9,3.3,6.9,2.6,2,2,4.48
11,AttF2,81,3.5,6.5,6.6,3.4,6.0,3.4,2,2,8.735
11,AttRF1,83,3.2,6.6,6.3,3.5,2.6,6.2,3,1,6.176
11,AttF2,85,3.4,6.5,6.7,3.2,6.2,3.2,3,2,4.575
11,AttRF2,87,3.2,6.8,6.5,3.5,5.8,2.9,2,1,4.129
11,AttF2,88,3.5,6.6,6.7,3.4,6.0,3.4,1,2,6.782
11,AttF1,89,3.5,6.4,6.5,3.4,3.5,5.9,3,2,5.312
11,AttR2,93,3.5,6.6,6.5,3.6,6.5,3.0,1,1,6.992
11,AttF1,95,3.3,6.6,6.4,3.5,3.3,6.1,3,1,3.296
11,AttR1,96,3.5,6.4,6.5,3.4,3.1,6.4,2,2,3.872
11,AttF2,98,3.1,6.8,6.5,3.4,5.8,3.4,1,2,4.082
11,AttRF2,100,3.3,6.8,6.5,3.6,5.8,3.1,2,1,5.395
11,AttF2,103,3.6,6.6,6.9,3.3,6.3,3.3,3,1,5.229
11,AttF1,104,3.0,6.9,6.8,3.1,3.0,6.5,2,1,5.138
11,AttRF2,109,3.3,6.8,6.5,3.6,5.8,2.9,3,2,5.6
11,AttRF2,110,3.5,6.5,6.6,3.4,6.2,3.0,2,2,4.817
11,AttF1,112,3.2,6.6,6.3,3.5,3.2,6.1,3,3,2.657
11,AttRF1,114,3.5,6.4,6.7,3.2,2.9,5.9,3,2,5.3
11,AttR2,115,3.3,6.8,6.5,3.6,6.5,2.9,1,2,3.888
11,AttR1,116,3.6,6.6,6.9,3.3,3.2,6.6,3,2,4.718
11,AttR1,118,3.5,6.6,6.7,3.4,3.0,6.6,2,2,5.838
11,AttRF2,120,3.5,6.7,6.6,3.6,6.0,3.2,2,2,10.657
11,AttRF2,121,3.3,6.6,6.4,3.5,5.9,2.8,3,2,5.711
11,AttR1,122,3.4,6.5,6.7,3.2,2.8,6.5,1,2,3.526
11,AttR2,123,3.5,6.4,6.7,3.2,6.7,2.6,1,3,1.84
11,AttF2,124,3.2,6.9,6.6,3.5,6.1,3.5,2,2,3.807
11,AttF1,126,3.5,6.7,6.6,3.6,3.5,6.2,2,1,5.328
11,AttRF1,127,3.3,6.8,6.5,3.6,2.9,6.1,3,2,3.952
11,AttR2,128,3.5,6.4,6.5,3.4,6.5,2.7,3,2,5.711
11,AttF1,131,3.6,6.6,6.9,3.3,3.6,5.9,1,2,6.031
11,AttF1,137,3.3,6.6,6.4,3.5,3.3,6.2,3,1,3.936
11,AttF2,141,3.5,6.4,6.5,3.4,5.8,3.4,1,2,4.048
11,AttF1,142,3.5,6.6,6.7,3.4,3.5,6.0,2,2,4.397
11,AttR2,143,3.1,6.8,6.5,3.4,6.5,2.9,2,2,5.775
11,AttF2,146,3.3,6.8,6.5,3.6,5.9,3.6,2,1,6.13
11,AttRF2,147,3.6,6.6,6.9,3.3,6.3,2.8,2,2,3.855
11,AttRF2,149,3.4,6.8,6.9,3.3,6.2,2.8,3,1,3.104
11,AttR1,150,3.5,6.7,6.6,3.6,3.1,6.7,3,1,3.376
11,AttR2,151,3.5,6.7,6.6,3.6,6.6,2.9,3,2,5.277
11,AttRF1,152,3.5,6.6,6.5,3.6,3.0,5.9,3,1,4.287
11,AttRF1,154,3.5,6.5,6.6,3.4,3.0,5.8,3,2,5.472
11,AttR2,158,3.2,6.6,6.3,3.5,6.3,3.1,1,1,4.35
11,AttR2,159,3.3,6.6,6.4,3.5,6.4,2.8,3,1,3.136
11,AttF2,160,3.3,6.6,6.4,3.5,5.8,3.5,3,1,3.121
11,AttF1,162,3.4,6.6,6.7,3.3,3.4,6.1,1,1,4.928
11,AttR1,163,3.4,6.8,6.9,3.3,2.9,6.8,1,1,6.239
11,AttRF2,164,3.5,6.6,6.7,3.4,6.1,2.7,3,2,6.08
11,AttR1,165,3.1,6.8,6.5,3.4,2.5,6.8,1,1,2.672
11,AttR1,174,3.4,6.6,6.7,3.3,2.9,6.6,2,2,2.657
11,AttRF2,176,3.0,6.9,6.8,3.1,6.2,2.5,2,2,3.602
11,AttRF1,182,3.5,6.7,6.6,3.6,2.9,6.1,2,1,4.502
11,AttR1,184,3.3,6.8,6.5,3.6,2.8,6.8,3,3,4.47
11,AttF2,185,3.3,6.6,6.4,3.5,5.8,3.5,1,2,2.654
11,AttF1,186,3.5,6.4,6.7,3.2,3.5,5.7,3,2,4.671
11,AttRF1,187,3.5,6.6,6.9,3.2,2.8,5.9,1,1,1.921
11,AttRF2,192,3.4,6.5,6.7,3.2,6.2,2.8,2,2,2.529
11,AttR2,193,3.5,6.6,6.9,3.2,6.9,2.7,1,1,3.328
11,AttF1,194,3.3,6.8,6.5,3.6,3.3,6.4,2,2,2.177
11,AttR1,196,3.5,6.4,6.7,3.2,2.8,6.4,2,2,4.159
11,AttRF2,198,3.2,6.9,6.6,3.5,6.1,3.1,1,2,3.422
11,AttR2,203,3.5,6.6,6.7,3.4,6.7,3.0,1,2,2.88
11,AttR2,205,3.0,6.9,6.8,3.1,6.8,2.5,1,2,2.08
11,AttF2,206,3.5,6.6,6.5,3.6,5.9,3.6,3,2,2.816
11,AttR1,207,3.5,6.6,6.9,3.2,3.1,6.6,1,1,2.447
11,AttR1,221,3.3,6.6,6.4,3.5,2.7,6.6,1,1,6.719
11,AttRF1,222,3.5,6.4,6.5,3.4,3.0,5.9,1,2,2.065
11,AttF1,223,3.5,6.6,6.9,3.2,3.5,6.2,2,2,2.399
11,AttR1,226,3.5,6.6,6.5,3.6,2.9,6.6,1,2,1.905
11,AttRF1,228,3.1,6.8,6.5,3.4,2.4,6.2,2,1,2.848
11,AttR2,229,3.5,6.5,6.6,3.4,6.6,3.0,2,1,2.271
11,AttRF1,230,3.5,6.6,6.7,3.4,3.1,6.2,2,1,2.385
11,AttF1,231,3.2,6.9,6.6,3.5,3.2,6.3,1,1,2.141
11,AttR2,232,3.2,6.9,6.6,3.5,6.6,3.1,2,1,2.608
11,AttF2,233,3.5,6.7,6.6,3.6,6.1,3.6,1,2,4.545
11,AttRF2,234,3.5,6.4,6.5,3.4,5.9,3.0,1,2,3.967
11,AttF2,240,3.5,6.4,6.7,3.2,6.3,3.2,1,1,1.87
12,AttRF1,1,3.5,6.4,6.5,3.4,3.0,5.9,1,1,96.966
12,AttRF2,4,3.3,6.6,6.4,3.5,5.8,2.9,3,1,42.339
12,AttRF2,5,3.5,6.4,6.5,3.4,5.9,3.0,2,2,23.011
12,AttRF1,6,3.4,6.8,6.9,3.3,2.8,6.2,2,1,48.61
12,AttRF2,9,3.1,6.8,6.5,3.4,5.9,2.8,1,2,11.314
12,AttRF1,10,3.5,6.6,6.5,3.6,3.0,5.9,2,1,10.692
12,AttF2,13,3.5,6.6,6.9,3.2,6.4,3.2,3,1,17.586
12,AttRF1,16,3.6,6.6,6.9,3.3,3.0,6.1,1,1,10.466
12,AttR2,18,3.1,6.8,6.5,3.4,6.5,2.9,3,2,7.908
12,AttF1,19,3.3,6.8,6.5,3.6,3.3,6.4,2,2,5.875
12,AttRF2,23,3.5,6.4,6.7,3.2,6.1,2.7,3,1,5.954
12,AttR1,26,3.5,6.5,6.6,3.4,2.9,6.5,1,1,7.455
12,AttR1,35,3.5,6.6,6.9,3.2,3.1,6.6,3,1,9.279
12,AttRF1,36,3.5,6.7,6.6,3.6,2.9,6.1,2,1,4.878
12,AttRF1,37,3.0,6.9,6.8,3.1,2.4,6.3,1,2,19.486
12,AttR2,38,3.2,6.9,6.6,3.5,6.6,3.1,3,2,9.49
12,AttF1,39,3.2,6.9,6.6,3.5,3.2,6.3,3,2,10.384
12,AttF1,40,3.3,6.8,6.5,3.6,3.3,6.4,2,2,12.32
12,AttRF2,41,3.4,6.5,6.7,3.2,6.2,2.8,2,1,5.055
12,AttF1,44,3.1,6.8,6.5,3.4,3.1,6.1,3,2,9.423
12,AttF2,49,3.3,6.6,6.4,3.5,5.8,3.5,1,2,22.103
12,AttRF2,51,3.2,6.6,6.3,3.5,5.8,2.9,3,2,10.768
12,AttR1,52,3.2,6.8,6.5,3.5,2.8,6.8,3,2,17.791
12,AttR2,53,3.3,6.8,6.5,3.6,6.5,2.9,3,2,7.936
12,AttRF2,55,3.4,6.8,6.9,3.3,6.2,2.8,3,3,12.434
12,AttF2,56,3.4,6.8,6.9,3.3,6.3,3.3,2,3,7.424
12,AttRF2,57,3.5,6.6,6.9,3.2,6.2,2.7,3,1,11.427
12,AttRF1,59,3.5,6.5,6.6,3.4,3.0,5.8,2,1,33.617
12,AttRF1,61,3.3,6.8,6.5,3.6,2.9,6.1,3,2,9.487
12,AttF1,63,3.4,6.8,6.9,3.3,3.4,6.1,2,3,39.518
12,AttR2,67,3.3,6.6,6.4,3.5,6.4,2.9,2,2,8.592
12,AttF2,68,3.4,6.5,6.7,3.2,6.2,3.2,2,1,30.689
12,AttF2,74,3.4,6.6,6.7,3.3,6.1,3.3,1,2,8.286
12,AttRF1,76,3.1,6.8,6.5,3.4,2.4,6.2,1,2,5.694
12,AttF2,77,3.5,6.4,6.5,3.4,5.8,3.4,2,3,8.176
12,AttRF1,78,3.5,6.4,6.7,3.2,2.9,5.9,1,1,5.441
12,AttRF2,81,3.3,6.6,6.4,3.5,5.9,2.8,3,2,13.744
12,AttRF2,83,3.2,6.9,6.6,3.5,6.1,3.1,2,2,4.909
12,AttR1,87,3.1,6.8,6.5,3.4,2.5,6.8,1,2,10.271
12,AttR1,88,3.4,6.5,6.7,3.2,2.8,6.5,1,1,11.568
12,AttRF1,90,3.2,6.6,6.3,3.5,2.6,6.2,3,1,3.807
12,AttR1,92,3.4,6.6,6.7,3.3,2.9,6.6,2,1,14.096
12,AttR2,93,3.4,6.5,6.7,3.2,6.7,2.6,2,1,7.118
12,AttR2,95,3.3,6.8,6.5,3.6,6.5,3.1,2,2,4.799
12,AttRF1,97,3.5,6.6,6.9,3.2,2.8,5.9,3,1,3.23
12,AttF1,100,3.3,6.6,6.4,3.5,3.3,6.2,1,2,17.438
12,AttR2,101,3.0,6.9,6.8,3.1,6.8,2.5,2,3,0.706
12,AttR1,102,3.0,6.9,6.8,3.1,2.6,6.9,3,3,16.166
12,AttRF2,104,3.3,6.8,6.5,3.6,5.8,3.1,2,3,9.938
12,AttR1,109,3.5,6.6,6.5,3.6,2.9,6.6,1,2,23.424
12,AttF1,110,3.3,6.6,6.4,3.5,3.3,6.1,2,2,14.225
12,AttF2,111,3.1,6.8,6.5,3.4,5.8,3.4,2,3,10.286
12,AttF1,113,3.5,6.4,6.5,3.4,3.5,5.9,1,3,18.785
12,AttR2,115,3.4,6.8,6.9,3.3,6.9,2.7,1,1,6.192
12,AttF2,116,3.3,6.6,6.4,3.5,5.8,3.5,1,3,8.16
12,AttF1,118,3.5,6.4,6.7,3.2,3.5,5.7,1,1,10.029
12,AttF1,120,3.5,6.7,6.6,3.6,3.5,6.2,3,2,1.872
12,AttR2,121,3.4,6.6,6.7,3.3,6.7,2.6,2,2,1.951
12,AttR2,122,3.2,6.8,6.5,3.5,6.5,3.0,3,1,1.911
12,AttRF2,124,3.3,6.8,6.5,3.6,5.8,2.9,1,3,2.4
12,AttF1,126,3.0,6.9,6.8,3.1,3.0,6.5,2,2,2.896
12,AttR2,128,3.5,6.5,6.6,3.4,6.6,3.0,1,3,3.151
12,AttRF1,129,3.4,6.5,6.7,3.2,3.0,6.1,2,2,3.312
12,AttRF2,132,3.6,6.6,6.9,3.3,6.3,2.8,3,1,2.543
12,AttRF2,135,3.5,6.7,6.6,3.6,6.0,3.2,3,1,3.295
12,AttRF1,137,3.3,6.6,6.4,3.5,2.7,6.1,2,2,3.806
12,AttF2,139,3.5,6.6,6.7,3.4,6.0,3.4,3,1,3.423
12,AttR1,140,3.5,6.4,6.7,3.2,2.8,6.4,2,1,3.024
12,AttR1,144,3.2,6.9,6.6,3.5,2.6,6.9,2,2,1.571
12,AttRF2,145,3.5,6.6,6.7,3.4,6.1,2.7,3,3,1.839
12,AttF1,147,3.5,6.6,6.7,3.4,3.5,6.0,2,3,1.063
12,AttR1,148,3.4,6.8,6.9,3.3,2.9,6.8,1,2,4.395
12,AttF1,152,3.5,6.6,6.5,3.6,3.5,6.2,2,2,3.135
12,AttRF2,153,3.4,6.6,6.7,3.3,6.2,2.7,3,1,3.809
12,AttF2,154,3.5,6.6,6.5,3.6,5.9,3.6,1,3,3.584
12,AttR2,156,3.5,6.4,6.5,3.4,6.5,2.7,1,3,4.83
12,AttRF2,157,3.5,6.5,6.6,3.4,6.2,3.0,2,1,3.601
12,AttR2,158,3.5,6.4,6.7,3.2,6.7,2.6,1,1,4.879
12,AttR2,161,3.5,6.6,6.5,3.6,6.5,3.0,2,1,7.936
12,AttR2,162,3.5,6.6,6.7,3.4,6.7,3.0,3,2,8.034
12,AttRF1,165,3.4,6.6,6.7,3.3,2.9,6.0,2,1,3.44
12,AttR2,166,3.3,6.6,6.4,3.5,6.4,2.8,3,2,5.183
12,AttF2,169,3.2,6.9,6.6,3.5,6.1,3.5,3,2,9.041
12,AttRF1,171,3.5,6.6,6.7,3.4,3.1,6.2,1,1,7.453
12,AttR1,172,3.3,6.8,6.5,3.6,2.8,6.8,3,2,8.418
12,AttF2,175,3.3,6.8,6.5,3.6,5.9,3.6,1,3,2.225
12,AttR1,177,3.3,6.6,6.4,3.5,2.9,6.6,1,2,4.675
12,AttR1,180,3.3,6.8,6.5,3.6,2.8,6.8,1,1,2.721
12,AttRF2,181,3.5,6.6,6.5,3.6,6.0,3.2,3,3,2.432
12,AttRF1,182,3.2,6.9,6.6,3.5,2.7,6.4,1,3,1.798
12,AttR2,183,3.6,6.6,6.9,3.3,6.9,2.6,1,1,4.782
12,AttF2,184,3.5,6.7,6.6,3.6,6.1,3.6,3,1,3.12
12,AttF2,187,3.6,6.6,6.9,3.3,6.3,3.3,3,2,6.641
12,AttR1,190,3.5,6.4,6.5,3.4,3.1,6.4,3,2,1.567
12,AttF2,191,3.0,6.9,6.8,3.1,6.4,3.1,3,3,5.921
12,AttF2,192,3.3,6.8,6.5,3.6,5.9,3.6,1,3,5.905
12,AttR2,193,3.5,6.7,6.6,3.6,6.6,2.9,2,2,2.369
12,AttR1,197,3.5,6.7,6.6,3.6,3.1,6.7,1,2,14.994
12,AttF2,198,3.5,6.4,6.7,3.2,6.3,3.2,3,1,3.438
12,AttF2,199,3.2,6.6,6.3,3.5,5.7,3.5,1,1,2.352
12,AttRF1,201,3.2,6.8,6.5,3.5,2.5,6.4,1,2,2.833
12,AttR1,203,3.3,6.6,6.4,3.5,2.7,6.6,3,3,1.441
12,AttF1,205,3.4,6.6,6.7,3.3,3.4,6.1,1,2,2.224
12,AttF1,209,3.2,6.8,6.5,3.5,3.2,6.2,2,2,7.439
12,AttRF1,210,3.3,6.6,6.4,3.5,2.7,5.9,1,3,5.567
12,AttF2,211,3.2,6.8,6.5,3.5,6.1,3.5,3,3,3.103
12,AttR2,213,3.5,6.6,6.9,3.2,6.9,2.7,1,2,7.901
12,AttR1,215,3.5,6.6,6.7,3.4,3.0,6.6,1,2,6.498
12,AttF1,218,3.4,6.5,6.7,3.2,3.4,6.1,1,3,3.985
12,AttF1,221,3.5,6.5,6.6,3.4,3.5,5.9,3,1,2.784
12,AttRF2,222,3.0,6.9,6.8,3.1,6.2,2.5,2,3,6.495
12,AttR2,226,3.2,6.6,6.3,3.5,6.3,3.1,1,1,4.912
12,AttF1,227,3.5,6.6,6.9,3.2,3.5,6.2,2,3,6.143
12,AttR1,229,3.2,6.6,6.3,3.5,2.7,6.6,2,3,6.177
12,AttRF1,230,3.3,6.8,6.5,3.6,2.9,6.1,1,3,2.494
12,AttF2,231,3.5,6.5,6.6,3.4,6.0,3.4,3,2,1.6
12,AttF1,233,3.6,6.6,6.9,3.3,3.6,5.9,3,3,5.266
12,AttRF2,234,3.2,6.8,6.5,3.5,5.8,2.9,1,1,2.207
12,AttR1,238,3.6,6.6,6.9,3.3,3.2,6.6,1,1,6.689
12,AttF1,240,3.2,6.6,6.3,3.5,3.2,6.1,3,1,5.503
13,AttR1,5,3.2,6.9,6.6,3.5,2.6,6.9,1,2,5.331
13,AttRF2,6,3.5,6.5,6.6,3.4,6.2,3.0,1,2,9.316
13,AttF2,7,3.5,6.4,6.5,3.4,5.8,3.4,1,2,2.05
13,AttF2,9,3.3,6.8,6.5,3.6,5.9,3.6,3,2,2.674
13,AttF2,12,3.3,6.6,6.4,3.5,5.8,3.5,1,2,1.922
13,AttR2,17,3.5,6.4,6.5,3.4,6.5,2.7,2,2,14.035
13,AttR1,18,3.2,6.8,6.5,3.5,2.8,6.8,3,2,4.996
13,AttF2,20,3.5,6.6,6.9,3.2,6.4,3.2,3,2,7.717
13,AttR1,24,3.3,6.6,6.4,3.5,2.9,6.6,3,2,8.563
13,AttR1,25,3.5,6.4,6.7,3.2,2.8,6.4,1,2,4.207
13,AttF2,26,3.2,6.9,6.6,3.5,6.1,3.5,3,2,5.006
13,AttF2,33,3.5,6.5,6.6,3.4,6.0,3.4,3,2,7.264
13,AttF1,34,3.5,6.7,6.6,3.6,3.5,6.2,2,2,7.328
13,AttR1,36,3.3,6.8,6.5,3.6,2.8,6.8,3,2,5.486
13,AttR2,37,3.4,6.5,6.7,3.2,6.7,2.6,3,2,4.928
13,AttF2,38,3.6,6.6,6.9,3.3,6.3,3.3,1,2,3.903
13,AttRF2,39,3.1,6.8,6.5,3.4,5.9,2.8,1,2,3.328
13,AttF1,44,3.3,6.8,6.5,3.6,3.3,6.4,1,2,6.11
13,AttR2,46,3.2,6.8,6.5,3.5,6.5,3.0,1,3,4.577
13,AttR1,51,3.3,6.8,6.5,3.6,2.8,6.8,1,3,2.175
13,AttF1,52,3.5,6.6,6.7,3.4,3.5,6.0,2,2,1.407
13,AttF2,54,3.4,6.6,6.7,3.3,6.1,3.3,1,2,4.674
13,AttR2,55,3.5,6.7,6.6,3.6,6.6,2.9,3,2,3.522
13,AttRF2,56,3.5,6.4,6.7,3.2,6.1,2.7,1,2,2.353
13,AttR1,58,3.5,6.5,6.6,3.4,2.9,6.5,3,2,1.678
13,AttF1,60,3.6,6.6,6.9,3.3,3.6,5.9,3,2,1.982
13,AttRF2,61,3.5,6.7,6.6,3.6,6.0,3.2,2,2,2.353
13,AttRF1,63,3.5,6.6,6.7,3.4,3.1,6.2,3,2,3.729
13,AttRF2,66,3.4,6.5,6.7,3.2,6.2,2.8,3,2,4.259
13,AttRF2,72,3.0,6.9,6.8,3.1,6.2,2.5,3,2,4.401
13,AttRF1,73,3.3,6.8,6.5,3.6,2.9,6.1,3,2,4.591
13,AttR2,74,3.5,6.4,6.7,3.2,6.7,2.6,2,2,2.67
13,AttRF1,75,3.4,6.8,6.9,3.3,2.8,6.2,3,2,1.826
13,AttR1,76,3.4,6.6,6.7,3.3,2.9,6.6,2,2,2.687
13,AttF1,79,3.5,6.4,6.5,3.4,3.5,5.9,2,2,2.782
13,AttF1,80,3.3,6.8,6.5,3.6,3.3,6.4,2,2,2.352
13,AttR2,83,3.3,6.8,6.5,3.6,6.5,2.9,2,3,3.822
13,AttR1,84,3.5,6.7,6.6,3.6,3.1,6.7,3,2,5.279
13,AttF2,86,3.1,6.8,6.5,3.4,5.8,3.4,3,2,6.302
13,AttR2,89,3.3,6.6,6.4,3.5,6.4,2.8,3,2,5.982
13,AttRF2,90,3.3,6.6,6.4,3.5,5.8,2.9,3,2,1.906
13,AttR1,91,3.2,6.6,6.3,3.5,2.7,6.6,3,2,3.12
13,AttRF2,93,3.3,6.6,6.4,3.5,5.9,2.8,1,2,3.473
13,AttF1,94,3.5,6.5,6.6,3.4,3.5,5.9,3,2,2.19
13,AttR1,97,3.5,6.6,6.9,3.2,3.1,6.6,1,2,1.998
13,AttF2,98,3.0,6.9,6.8,3.1,6.4,3.1,1,2,2.849
13,AttRF1,100,3.4,6.5,6.7,3.2,3.0,6.1,3,2,1.793
13,AttF1,102,3.5,6.4,6.7,3.2,3.5,5.7,1,2,2.067
13,AttRF1,103,3.5,6.5,6.6,3.4,3.0,5.8,3,2,1.518
13,AttF2,104,3.3,6.6,6.4,3.5,5.8,3.5,1,2,1.951
13,AttRF1,105,3.5,6.4,6.5,3.4,3.0,5.9,1,2,1.84
13,AttRF1,107,3.3,6.8,6.5,3.6,2.9,6.1,1,2,2.831
13,AttF2,108,3.5,6.6,6.7,3.4,6.0,3.4,2,2,2.608
13,AttR2,109,3.2,6.9,6.6,3.5,6.6,3.1,3,2,3.345
13,AttR1,112,3.5,6.6,6.7,3.4,3.0,6.6,2,2,2.289
13,AttRF2,113,3.5,6.6,6.9,3.2,6.2,2.7,1,2,4.115
13,AttF2,114,3.2,6.8,6.5,3.5,6.1,3.5,3,2,3.632
13,AttR2,119,3.5,6.6,6.5,3.6,6.5,3.0,2,2,2.592
13,AttR2,121,3.2,6.6,6.3,3.5,6.3,3.1,2,2,2.496
13,AttRF1,124,3.3,6.6,6.4,3.5,2.7,5.9,1,3,10.783
13,AttRF1,125,3.0,6.9,6.8,3.1,2.4,6.3,2,2,3.232
13,AttR1,126,3.5,6.6,6.5,3.6,2.9,6.6,1,2,2.846
13,AttRF1,128,3.2,6.8,6.5,3.5,2.5,6.4,2,2,2.255
13,AttR1,129,3.1,6.8,6.5,3.4,2.5,6.8,1,2,1.569
13,AttRF2,130,3.2,6.6,6.3,3.5,5.8,2.9,2,2,2.847
13,AttF1,131,3.4,6.8,6.9,3.3,3.4,6.1,3,2,1.647
13,AttRF2,132,3.6,6.6,6.9,3.3,6.3,2.8,1,2,1.791
13,AttR1,136,3.4,6.8,6.9,3.3,2.9,6.8,3,2,2.434
13,AttRF1,137,3.3,6.6,6.4,3.5,2.7,6.1,3,2,5.166
13,AttF1,138,3.4,6.6,6.7,3.3,3.4,6.1,2,2,1.726
13,AttR2,139,3.3,6.8,6.5,3.6,6.5,3.1,1,2,1.825
13,AttF1,141,3.3,6.6,6.4,3.5,3.3,6.2,2,2,2.063
13,AttRF2,142,3.2,6.9,6.6,3.5,6.1,3.1,1,2,1.986
13,AttF2,143,3.5,6.6,6.5,3.6,5.9,3.6,1,2,1.97
13,AttRF2,145,3.3,6.8,6.5,3.6,5.8,2.9,1,2,2.4
13,AttR1,146,3.0,6.9,6.8,3.1,2.6,6.9,1,2,2.417
13,AttRF1,148,3.6,6.6,6.9,3.3,3.0,6.1,3,2,2.193
13,AttF1,149,3.3,6.6,6.4,3.5,3.3,6.1,3,2,1.407
13,AttF1,153,3.1,6.8,6.5,3.4,3.1,6.1,1,2,1.728
13,AttF2,155,3.5,6.7,6.6,3.6,6.1,3.6,1,2,2.431
13,AttF2,156,3.2,6.6,6.3,3.5,5.7,3.5,2,2,3.889
13,AttRF2,163,3.3,6.8,6.5,3.6,5.8,3.1,2,2,5.873
13,AttR2,166,3.5,6.6,6.9,3.2,6.9,2.7,3,2,3.152
13,AttR2,167,3.5,6.6,6.7,3.4,6.7,3.0,2,2,2.991
13,AttRF1,169,3.4,6.6,6.7,3.3,2.9,6.0,3,2,4.417
13,AttRF1,173,3.5,6.6,6.5,3.6,3.0,5.9,1,1,2.768
13,AttRF2,174,3.5,6.6,6.7,3.4,6.1,2.7,1,2,4.383
13,AttR2,176,3.4,6.6,6.7,3.3,6.7,2.6,2,2,2.512
13,AttRF2,178,3.4,6.8,6.9,3.3,6.2,2.8,2,2,1.854
13,AttF1,179,3.0,6.9,6.8,3.1,3.0,6.5,3,2,3.424
13,AttF1,180,3.5,6.6,6.9,3.2,3.5,6.2,1,2,2.287
13,AttR2,184,3.4,6.8,6.9,3.3,6.9,2.7,3,1,2.861
13,AttR2,185,3.6,6.6,6.9,3.3,6.9,2.6,1,2,3.055
13,AttRF2,187,3.2,6.8,6.5,3.5,5.8,2.9,3,2,6.13
13,AttR1,190,3.3,6.6,6.4,3.5,2.7,6.6,3,2,2.067
13,AttRF1,191,3.5,6.4,6.7,3.2,2.9,5.9,2,2,3.15
13,AttRF2,192,3.4,6.6,6.7,3.3,6.2,2.7,1,2,1.744
13,AttRF2,194,3.5,6.4,6.5,3.4,5.9,3.0,1,2,3.905
13,AttR1,196,3.4,6.5,6.7,3.2,2.8,6.5,1,2,2.557
13,AttF2,199,3.4,6.5,6.7,3.2,6.2,3.2,1,2,3.554
13,AttF1,200,3.5,6.6,6.5,3.6,3.5,6.2,3,2,9.809
13,AttR1,203,3.6,6.6,6.9,3.3,3.2,6.6,3,2,3.713
13,AttRF1,206,3.1,6.8,6.5,3.4,2.4,6.2,3,2,5.44
13,AttF1,208,3.2,6.8,6.5,3.5,3.2,6.2,1,2,1.905
13,AttRF1,211,3.2,6.9,6.6,3.5,2.7,6.4,1,2,2.336
13,AttF2,212,3.3,6.8,6.5,3.6,5.9,3.6,1,2,2.639
13,AttF2,213,3.5,6.4,6.7,3.2,6.3,3.2,1,2,1.904
13,AttR1,214,3.5,6.4,6.5,3.4,3.1,6.4,2,2,1.745
13,AttF2,219,3.4,6.8,6.9,3.3,6.3,3.3,3,2,2.369
13,AttR2,223,3.3,6.6,6.4,3.5,6.4,2.9,1,2,8.144
13,AttRF1,224,3.5,6.6,6.9,3.2,2.8,5.9,3,1,2.303
13,AttF1,225,3.2,6.9,6.6,3.5,3.2,6.3,2,2,4.445
13,AttRF2,229,3.5,6.6,6.5,3.6,6.0,3.2,1,1,1.294
13,AttR2,230,3.0,6.9,6.8,3.1,6.8,2.5,2,2,5.638
13,AttF1,231,3.2,6.6,6.3,3.5,3.2,6.1,3,2,3.074
13,AttRF1,233,3.2,6.6,6.3,3.5,2.6,6.2,1,2,1.857
13,AttF1,236,3.4,6.5,6.7,3.2,3.4,6.1,3,2,3.744
13,AttR2,237,3.1,6.8,6.5,3.4,6.5,2.9,1,2,3.76
13,AttRF1,238,3.5,6.7,6.6,3.6,2.9,6.1,1,2,1.871
13,AttR2,240,3.5,6.5,6.6,3.4,6.6,3.0,3,2,3.006
14,AttR2,1,3.2,6.6,6.3,3.5,6.3,3.1,3,1,29.878
14,AttRF1,4,3.0,6.9,6.8,3.1,2.4,6.3,3,2,9.091
14,AttRF2,7,3.3,6.8,6.5,3.6,5.8,3.1,1,2,13.379
14,AttRF2,9,3.5,6.5,6.6,3.4,6.2,3.0,2,1,11.395
14,AttR1,10,3.6,6.6,6.9,3.3,3.2,6.6,1,1,9.587
14,AttRF1,11,3.5,6.6,6.9,3.2,2.8,5.9,1,1,13.059
14,AttR2,16,3.5,6.6,6.5,3.6,6.5,3.0,3,2,11.233
14,AttF1,17,3.5,6.7,6.6,3.6,3.5,6.2,2,3,6.243
14,AttF1,18,3.6,6.6,6.9,3.3,3.6,5.9,2,2,23.569
14,AttRF2,22,3.2,6.9,6.6,3.5,6.1,3.1,3,3,4.404
14,AttR2,24,3.1,6.8,6.5,3.4,6.5,2.9,2,1,4.945
14,AttR1,25,3.0,6.9,6.8,3.1,2.6,6.9,3,2,2.96
14,AttF2,29,3.5,6.6,6.5,3.6,5.9,3.6,2,2,4.367
14,AttR2,30,3.4,6.8,6.9,3.3,6.9,2.7,1,2,7.31
14,AttF2,31,3.3,6.8,6.5,3.6,5.9,3.6,3,2,10.784
14,AttF1,32,3.2,6.8,6.5,3.5,3.2,6.2,1,2,10.399
14,AttRF1,33,3.2,6.9,6.6,3.5,2.7,6.4,1,3,7.311
14,AttR1,34,3.5,6.6,6.7,3.4,3.0,6.6,3,2,5.327
14,AttR1,36,3.5,6.6,6.9,3.2,3.1,6.6,3,1,9.92
14,AttRF1,39,3.5,6.4,6.5,3.4,3.0,5.9,1,2,2.142
14,AttR2,40,3.5,6.4,6.7,3.2,6.7,2.6,3,2,4.287
14,AttR2,42,3.2,6.8,6.5,3.5,6.5,3.0,1,2,3.36
14,AttF1,44,3.3,6.6,6.4,3.5,3.3,6.1,2,2,3.408
14,AttR1,45,3.2,6.8,6.5,3.5,2.8,6.8,3,2,5.425
14,AttR1,49,3.5,6.4,6.7,3.2,2.8,6.4,1,2,4.558
14,AttRF2,50,3.5,6.6,6.5,3.6,6.0,3.2,2,1,0.785
14,AttRF2,51,3.3,6.6,6.4,3.5,5.9,2.8,2,2,3.381
14,AttRF1,53,3.2,6.8,6.5,3.5,2.5,6.4,2,3,2.831
14,AttF2,55,3.2,6.6,6.3,3.5,5.7,3.5,2,3,4.126
14,AttRF1,56,3.3,6.6,6.4,3.5,2.7,5.9,1,2,4.656
14,AttR1,58,3.1,6.8,6.5,3.4,2.5,6.8,3,3,4.033
14,AttF1,59,3.3,6.8,6.5,3.6,3.3,6.4,2,2,1.889
14,AttR1,61,3.5,6.6,6.5,3.6,2.9,6.6,3,2,2.855
14,AttF2,63,3.5,6.7,6.6,3.6,6.1,3.6,1,1,2.194
14,AttF2,64,3.0,6.9,6.8,3.1,6.4,3.1,2,2,1.486
14,AttR1,65,3.4,6.6,6.7,3.3,2.9,6.6,1,2,2.885
14,AttR2,66,3.5,6.6,6.7,3.4,6.7,3.0,2,3,2.895
14,AttRF2,67,3.5,6.6,6.9,3.2,6.2,2.7,3,2,3.76
14,AttF2,70,3.2,6.8,6.5,3.5,6.1,3.5,2,2,2.369
14,AttRF1,71,3.3,6.6,6.4,3.5,2.7,6.1,3,1,2.525
14,AttR2,73,3.6,6.6,6.9,3.3,6.9,2.6,1,2,2.749
14,AttRF1,74,3.5,6.4,6.7,3.2,2.9,5.9,3,1,8.178
14,AttRF1,76,3.5,6.6,6.5,3.6,3.0,5.9,2,3,5.841
14,AttR2,77,3.5,6.6,6.9,3.2,6.9,2.7,3,3,4.72
14,AttR1,89,3.3,6.8,6.5,3.6,2.8,6.8,3,3,4.047
14,AttRF2,91,3.5,6.4,6.5,3.4,5.9,3.0,1,1,3.276
14,AttF1,92,3.5,6.6,6.9,3.2,3.5,6.2,2,3,3.779
14,AttF2,93,3.5,6.5,6.6,3.4,6.0,3.4,3,3,2.911
14,AttF2,99,3.4,6.5,6.7,3.2,6.2,3.2,1,1,3.758
14,AttR1,100,3.3,6.8,6.5,3.6,2.8,6.8,1,1,2.753
14,AttRF1,101,3.5,6.7,6.6,3.6,2.9,6.1,3,2,2.656
14,AttF1,102,3.3,6.6,6.4,3.5,3.3,6.2,3,2,3.407
14,AttRF2,103,3.4,6.6,6.7,3.3,6.2,2.7,1,2,2.895
14,AttR1,105,3.5,6.7,6.6,3.6,3.1,6.7,2,2,2.081
14,AttRF2,107,3.5,6.7,6.6,3.6,6.0,3.2,3,2,3.28
14,AttF1,111,3.4,6.6,6.7,3.3,3.4,6.1,2,2,2.191
14,AttR2,113,3.5,6.4,6.5,3.4,6.5,2.7,3,3,2.113
14,AttF2,116,3.4,6.8,6.9,3.3,6.3,3.3,2,3,1.983
14,AttF1,117,3.5,6.6,6.7,3.4,3.5,6.0,1,2,3.054
14,AttF1,120,3.5,6.6,6.5,3.6,3.5,6.2,2,1,2.239
14,AttR1,121,3.2,6.6,6.3,3.5,2.7,6.6,2,1,1.777
14,AttR2,123,3.2,6.9,6.6,3.5,6.6,3.1,2,1,2.559
14,AttRF2,124,3.1,6.8,6.5,3.4,5.9,2.8,2,3,2.529
14,AttF2,125,3.3,6.8,6.5,3.6,5.9,3.6,2,2,2.991
14,AttRF1,126,3.1,6.8,6.5,3.4,2.4,6.2,3,2,2.543
14,AttF1,127,3.1,6.8,6.5,3.4,3.1,6.1,3,3,3.104
14,AttF2,129,3.6,6.6,6.9,3.3,6.3,3.3,1,2,4.37
14,AttF1,130,3.4,6.5,6.7,3.2,3.4,6.1,2,1,2.719
14,AttRF2,131,3.4,6.8,6.9,3.3,6.2,2.8,2,3,2.704
14,AttRF1,133,3.6,6.6,6.9,3.3,3.0,6.1,2,1,3.182
14,AttR1,134,3.2,6.9,6.6,3.5,2.6,6.9,3,3,4.176
14,AttR2,135,3.3,6.8,6.5,3.6,6.5,2.9,2,2,5.311
14,AttR2,136,3.5,6.5,6.6,3.4,6.6,3.0,1,2,3.696
14,AttF1,137,3.3,6.8,6.5,3.6,3.3,6.4,3,2,7.392
14,AttF1,140,3.2,6.6,6.3,3.5,3.2,6.1,3,1,2.816
14,AttRF1,141,3.5,6.5,6.6,3.4,3.0,5.8,2,3,2.672
14,AttR1,142,3.3,6.6,6.4,3.5,2.7,6.6,1,2,2.08
14,AttR2,143,3.3,6.8,6.5,3.6,6.5,3.1,2,1,2.798
14,AttR1,144,3.5,6.5,6.6,3.4,2.9,6.5,3,3,1.855
14,AttF2,148,3.4,6.6,6.7,3.3,6.1,3.3,1,2,2.145
14,AttRF2,151,3.4,6.5,6.7,3.2,6.2,2.8,3,2,2.878
14,AttRF1,155,3.4,6.5,6.7,3.2,3.0,6.1,2,3,3.535
14,AttRF2,156,3.2,6.6,6.3,3.5,5.8,2.9,3,1,3.358
14,AttF2,160,3.2,6.9,6.6,3.5,6.1,3.5,2,3,4.014
14,AttRF2,163,3.6,6.6,6.9,3.3,6.3,2.8,2,1,4.385
14,AttRF1,164,3.3,6.8,6.5,3.6,2.9,6.1,2,3,3.199
14,AttR2,165,3.4,6.6,6.7,3.3,6.7,2.6,3,3,2.915
14,AttRF2,167,3.5,6.6,6.7,3.4,6.1,2.7,2,1,4.144
14,AttR2,169,3.5,6.7,6.6,3.6,6.6,2.9,3,2,3.455
14,AttR1,171,3.5,6.4,6.5,3.4,3.1,6.4,2,2,3.984
14,AttRF1,173,3.5,6.6,6.7,3.4,3.1,6.2,3,2,4.639
14,AttF1,177,3.4,6.8,6.9,3.3,3.4,6.1,3,2,4.142
14,AttF1,179,3.5,6.4,6.7,3.2,3.5,5.7,2,3,3.632
14,AttF1,180,3.2,6.9,6.6,3.5,3.2,6.3,2,2,2.511
14,AttR1,183,3.3,6.6,6.4,3.5,2.9,6.6,3,3,3.072
14,AttR2,184,3.4,6.5,6.7,3.2,6.7,2.6,2,1,2.127
14,AttF2,188,3.5,6.4,6.7,3.2,6.3,3.2,3,1,2.673
14,AttRF1,193,3.2,6.6,6.3,3.5,2.6,6.2,2,3,2.787
14,AttRF2,194,3.0,6.9,6.8,3.1,6.2,2.5,3,1,2.381
14,AttRF1,195,3.4,6.8,6.9,3.3,2.8,6.2,2,3,2.483
14,AttF2,201,3.1,6.8,6.5,3.4,5.8,3.4,3,1,2.718
14,AttRF1,208,3.3,6.8,6.5,3.6,2.9,6.1,3,2,3.456
14,AttF1,209,3.0,6.9,6.8,3.1,3.0,6.5,2,1,3.967
14,AttR2,214,3.3,6.6,6.4,3.5,6.4,2.8,2,2,3.395
14,AttR1,216,3.4,6.8,6.9,3.3,2.9,6.8,2,1,3.586
14,AttF1,217,3.5,6.5,6.6,3.4,3.5,5.9,3,1,3.119
14,AttRF2,220,3.2,6.8,6.5,3.5,5.8,2.9,3,2,3.137
14,AttF2,221,3.5,6.4,6.5,3.4,5.8,3.4,1,2,3.599
14,AttF2,222,3.5,6.6,6.9,3.2,6.4,3.2,2,2,3.038
14,AttRF2,224,3.5,6.4,6.7,3.2,6.1,2.7,3,1,4.591
14,AttF1,226,3.5,6.4,6.5,3.4,3.5,5.9,2,2,5.522
14,AttRF1,228,3.4,6.6,6.7,3.3,2.9,6.0,3,3,4.1
14,AttRF2,229,3.3,6.8,6.5,3.6,5.8,2.9,2,3,4.91
14,AttR1,231,3.4,6.5,6.7,3.2,2.8,6.5,2,3,4.879
14,AttF2,233,3.3,6.6,6.4,3.5,5.8,3.5,3,1,4.066
14,AttF2,234,3.5,6.6,6.7,3.4,6.0,3.4,2,2,4.75
14,AttF2,237,3.3,6.6,6.4,3.5,5.8,3.5,1,3,2.718
14,AttRF2,238,3.3,6.6,6.4,3.5,5.8,2.9,2,1,2.88
14,AttR2,239,3.3,6.6,6.4,3.5,6.4,2.9,3,2,2.481
14,AttR2,240,3.0,6.9,6.8,3.1,6.8,2.5,2,1,3.09
16,AttR2,1,3.4,6.8,6.9,3.3,6.9,2.7,1,2,66.646
16,AttF2,2,3.5,6.4,6.5,3.4,5.8,3.4,2,1,40.82
16,AttRF2,4,3.4,6.6,6.7,3.3,6.2,2.7,2,1,12.579
16,AttRF2,7,3.2,6.6,6.3,3.5,5.8,2.9,1,1,15.299
16,AttRF2,10,3.6,6.6,6.9,3.3,6.3,2.8,3,1,12.865
16,AttR1,11,3.5,6.4,6.5,3.4,3.1,6.4,3,2,22.148
16,AttR1,14,3.4,6.5,6.7,3.2,2.8,6.5,1,1,19.441
16,AttR1,16,3.3,6.8,6.5,3.6,2.8,6.8,1,2,16.481
16,AttR2,18,3.4,6.6,6.7,3.3,6.7,2.6,3,1,18.723
16,AttR1,19,3.0,6.9,6.8,3.1,2.6,6.9,3,2,27.058
16,AttR2,20,3.2,6.9,6.6,3.5,6.6,3.1,2,2,12.067
16,AttF2,21,3.5,6.6,6.5,3.6,5.9,3.6,1,2,17.571
16,AttRF2,24,3.2,6.8,6.5,3.5,5.8,2.9,2,2,10.438
16,AttF2,26,3.4,6.8,6.9,3.3,6.3,3.3,1,2,13.761
16,AttRF1,30,3.3,6.8,6.5,3.6,2.9,6.1,2,2,14.271
16,AttF1,31,3.1,6.8,6.5,3.4,3.1,6.1,3,2,7.665
16,AttF2,32,3.1,6.8,6.5,3.4,5.8,3.4,1,2,10.364
16,AttF2,35,3.5,6.5,6.6,3.4,6.0,3.4,2,1,16.929
16,AttRF2,36,3.4,6.8,6.9,3.3,6.2,2.8,3,1,11.841
16,AttF1,37,3.2,6.9,6.6,3.5,3.2,6.3,2,2,13.468
16,AttF2,39,3.2,6.6,6.3,3.5,5.7,3.5,3,2,15.166
16,AttR2,43,3.3,6.8,6.5,3.6,6.5,3.1,1,2,5.057
16,AttR1,44,3.5,6.5,6.6,3.4,2.9,6.5,2,1,22.386
16,AttF2,48,3.4,6.5,6.7,3.2,6.2,3.2,2,1,13.473
16,AttF2,49,3.3,6.8,6.5,3.6,5.9,3.6,1,2,9.807
16,AttRF1,50,3.2,6.9,6.6,3.5,2.7,6.4,2,1,25.552
16,AttR2,53,3.2,6.6,6.3,3.5,6.3,3.1,2,2,7.073
16,AttF1,55,3.2,6.6,6.3,3.5,3.2,6.1,1,2,8.83
16,AttRF1,56,3.5,6.6,6.7,3.4,3.1,6.2,1,2,5.663
16,AttRF2,57,3.2,6.9,6.6,3.5,6.1,3.1,1,2,7.774
16,AttF2,59,3.3,6.8,6.5,3.6,5.9,3.6,3,2,33.295
16,AttR1,61,3.5,6.6,6.5,3.6,2.9,6.6,2,2,21.663
16,AttRF2,65,3.5,6.6,6.9,3.2,6.2,2.7,2,1,17.937
16,AttRF1,66,3.6,6.6,6.9,3.3,3.0,6.1,2,1,10.853
16,AttRF1,67,3.4,6.6,6.7,3.3,2.9,6.0,1,1,28.729
16,AttR2,69,3.0,6.9,6.8,3.1,6.8,2.5,2,2,8.895
16,AttF2,70,3.5,6.6,6.9,3.2,6.4,3.2,3,1,11.373
16,AttR2,72,3.1,6.8,6.5,3.4,6.5,2.9,1,2,14.574
16,AttF2,73,3.2,6.8,6.5,3.5,6.1,3.5,1,2,8.448
16,AttF2,75,3.3,6.6,6.4,3.5,5.8,3.5,2,2,13.345
16,AttR1,76,3.3,6.8,6.5,3.6,2.8,6.8,2,1,8.622
16,AttR1,80,3.5,6.6,6.7,3.4,3.0,6.6,3,1,14.478
16,AttRF2,81,3.3,6.8,6.5,3.6,5.8,3.1,2,2,15.502
16,AttR2,88,3.2,6.8,6.5,3.5,6.5,3.0,1,2,21.968
16,AttF1,89,3.5,6.5,6.6,3.4,3.5,5.9,3,1,8.191
16,AttRF2,96,3.5,6.6,6.5,3.6,6.0,3.2,1,2,4.418
16,AttRF2,97,3.4,6.5,6.7,3.2,6.2,2.8,2,1,5.297
16,AttRF1,98,3.5,6.5,6.6,3.4,3.0,5.8,1,1,4.591
16,AttF1,99,3.4,6.6,6.7,3.3,3.4,6.1,1,1,6.014
16,AttRF1,106,3.3,6.8,6.5,3.6,2.9,6.1,1,2,6.431
16,AttF1,107,3.3,6.8,6.5,3.6,3.3,6.4,3,2,7.346
16,AttF2,108,3.5,6.4,6.7,3.2,6.3,3.2,2,1,4.029
16,AttR1,109,3.5,6.7,6.6,3.6,3.1,6.7,1,1,3.055
16,AttRF2,113,3.3,6.6,6.4,3.5,5.8,2.9,1,2,5.535
16,AttRF1,114,3.0,6.9,6.8,3.1,2.4,6.3,3,2,6.095
16,AttF2,115,3.0,6.9,6.8,3.1,6.4,3.1,2,2,6.064
16,AttF1,119,3.5,6.7,6.6,3.6,3.5,6.2,2,2,8.0
16,AttRF2,120,3.5,6.6,6.7,3.4,6.1,2.7,2,1,14.129
16,AttRF1,121,3.5,6.4,6.5,3.4,3.0,5.9,2,1,6.224
16,AttF2,123,3.3,6.6,6.4,3.5,5.8,3.5,3,2,13.73
16,AttF1,124,3.5,6.4,6.5,3.4,3.5,5.9,2,1,10.03
16,AttR2,125,3.3,6.8,6.5,3.6,6.5,2.9,3,2,18.05
16,AttR1,126,3.3,6.6,6.4,3.5,2.9,6.6,3,2,6.526
16,AttF1,131,3.3,6.8,6.5,3.6,3.3,6.4,1,2,7.058
16,AttF2,133,3.4,6.6,6.7,3.3,6.1,3.3,1,1,19.311
16,AttR2,135,3.3,6.6,6.4,3.5,6.4,2.8,3,2,15.056
16,AttF1,136,3.3,6.6,6.4,3.5,3.3,6.1,1,2,11.778
16,AttRF2,137,3.5,6.4,6.5,3.4,5.9,3.0,3,1,17.007
16,AttF1,138,3.6,6.6,6.9,3.3,3.6,5.9,2,1,8.015
16,AttF2,141,3.5,6.7,6.6,3.6,6.1,3.6,1,2,15.345
16,AttR1,142,3.6,6.6,6.9,3.3,3.2,6.6,2,1,4.975
16,AttR1,145,3.5,6.6,6.9,3.2,3.1,6.6,3,1,5.457
16,AttF1,146,3.5,6.6,6.9,3.2,3.5,6.2,1,1,13.377
16,AttR2,147,3.5,6.6,6.5,3.6,6.5,3.0,2,2,10.352
16,AttRF1,150,3.3,6.6,6.4,3.5,2.7,6.1,1,2,11.041
16,AttR1,152,3.2,6.8,6.5,3.5,2.8,6.8,3,2,18.735
16,AttF1,154,3.5,6.6,6.5,3.6,3.5,6.2,2,2,13.359
16,AttF1,157,3.0,6.9,6.8,3.1,3.0,6.5,1,2,5.746
16,AttF2,161,3.2,6.9,6.6,3.5,6.1,3.5,3,2,9.154
16,AttR2,162,3.5,6.6,6.9,3.2,6.9,2.7,3,2,5.679
16,AttF1,163,3.3,6.6,6.4,3.5,3.3,6.2,1,1,6.477
16,AttRF2,164,3.0,6.9,6.8,3.1,6.2,2.5,1,1,2.176
16,AttRF2,165,3.1,6.8,6.5,3.4,5.9,2.8,3,1,4.814
16,AttRF1,166,3.4,6.8,6.9,3.3,2.8,6.2,3,2,2.847
16,AttRF1,169,3.2,6.8,6.5,3.5,2.5,6.4,3,1,2.4
16,AttF2,170,3.6,6.6,6.9,3.3,6.3,3.3,3,2,3.407
16,AttR1,171,3.1,6.8,6.5,3.4,2.5,6.8,3,1,4.159
16,AttR2,172,3.6,6.6,6.9,3.3,6.9,2.6,3,2,3.374
16,AttRF1,173,3.4,6.5,6.7,3.2,3.0,6.1,1,2,5.295
16,AttR1,175,3.5,6.4,6.7,3.2,2.8,6.4,1,2,4.911
16,AttR2,182,3.5,6.6,6.7,3.4,6.7,3.0,3,2,3.847
16,AttF1,186,3.4,6.5,6.7,3.2,3.4,6.1,3,1,6.462
16,AttF1,187,3.5,6.6,6.7,3.4,3.5,6.0,1,2,3.265
16,AttR1,190,3.4,6.6,6.7,3.3,2.9,6.6,2,2,1.246
16,AttR2,193,3.5,6.4,6.7,3.2,6.7,2.6,3,2,5.151
16,AttR1,194,3.4,6.8,6.9,3.3,2.9,6.8,3,2,5.586
16,AttRF1,195,3.5,6.7,6.6,3.6,2.9,6.1,2,1,10.576
16,AttR2,197,3.3,6.6,6.4,3.5,6.4,2.9,3,1,4.88
16,AttF1,198,3.2,6.8,6.5,3.5,3.2,6.2,2,1,3.134
16,AttRF1,201,3.5,6.6,6.9,3.2,2.8,5.9,3,1,9.454
16,AttR2,203,3.4,6.5,6.7,3.2,6.7,2.6,1,2,2.513
16,AttR1,207,3.3,6.6,6.4,3.5,2.7,6.6,3,3,1.184
16,AttRF1,208,3.5,6.6,6.5,3.6,3.0,5.9,3,2,1.367
16,AttRF2,209,3.3,6.6,6.4,3.5,5.9,2.8,2,3,4.007
16,AttF2,210,3.5,6.6,6.7,3.4,6.0,3.4,1,2,3.248
16,AttRF2,211,3.5,6.7,6.6,3.6,6.0,3.2,3,3,3.357
16,AttRF2,212,3.5,6.5,6.6,3.4,6.2,3.0,1,1,2.544
16,AttRF1,213,3.1,6.8,6.5,3.4,2.4,6.2,2,2,1.746
16,AttRF2,216,3.5,6.4,6.7,3.2,6.1,2.7,1,3,2.464
16,AttF1,217,3.4,6.8,6.9,3.3,3.4,6.1,3,2,2.078
16,AttRF1,218,3.5,6.4,6.7,3.2,2.9,5.9,2,2,1.649
16,AttR2,220,3.5,6.5,6.6,3.4,6.6,3.0,2,1,1.503
16,AttR1,221,3.2,6.6,6.3,3.5,2.7,6.6,3,3,1.425
16,AttF1,223,3.5,6.4,6.7,3.2,3.5,5.7,2,2,1.47
16,AttRF2,231,3.3,6.8,6.5,3.6,5.8,2.9,2,3,2.098
16,AttRF1,232,3.3,6.6,6.4,3.5,2.7,5.9,3,3,2.128
16,AttR1,234,3.2,6.9,6.6,3.5,2.6,6.9,1,3,2.317
16,AttR2,237,3.5,6.7,6.6,3.6,6.6,2.9,2,3,2.272
16,AttR2,239,3.5,6.4,6.5,3.4,6.5,2.7,2,2,2.368
16,AttRF1,240,3.2,6.6,6.3,3.5,2.6,6.2,3,2,2.08
17,AttR1,2,3.2,6.9,6.6,3.5,2.6,6.9,3,3,39.762
17,AttF2,3,3.3,6.8,6.5,3.6,5.9,3.6,3,3,13.46
17,AttF2,8,3.5,6.4,6.5,3.4,5.8,3.4,2,3,11.699
17,AttR2,10,3.3,6.8,6.5,3.6,6.5,3.1,2,3,11.713
17,AttR1,11,3.4,6.8,6.9,3.3,2.9,6.8,1,3,7.78
17,AttRF1,14,3.1,6.8,6.5,3.4,2.4,6.2,2,3,6.068
17,AttF1,17,3.5,6.4,6.5,3.4,3.5,5.9,3,3,8.627
17,AttR1,20,3.0,6.9,6.8,3.1,2.6,6.9,3,3,7.604
17,AttF2,22,3.5,6.6,6.9,3.2,6.4,3.2,3,3,16.384
17,AttF2,24,3.3,6.8,6.5,3.6,5.9,3.6,1,3,10.18
17,AttRF1,26,3.5,6.5,6.6,3.4,3.0,5.8,1,3,8.128
17,AttR2,29,3.5,6.5,6.6,3.4,6.6,3.0,3,3,6.687
17,AttRF2,30,3.4,6.5,6.7,3.2,6.2,2.8,3,3,10.8
17,AttF2,32,3.5,6.6,6.5,3.6,5.9,3.6,2,3,13.791
17,AttRF1,33,3.4,6.5,6.7,3.2,3.0,6.1,1,3,15.663
17,AttRF1,34,3.0,6.9,6.8,3.1,2.4,6.3,3,3,6.592
17,AttRF2,35,3.2,6.8,6.5,3.5,5.8,2.9,1,3,20.143
17,AttR1,36,3.3,6.6,6.4,3.5,2.7,6.6,1,3,9.584
17,AttR1,37,3.6,6.6,6.9,3.3,3.2,6.6,3,3,11.647
17,AttF1,39,3.6,6.6,6.9,3.3,3.6,5.9,2,3,6.175
17,AttRF1,40,3.5,6.4,6.5,3.4,3.0,5.9,3,3,4.191
17,AttR2,41,3.5,6.4,6.5,3.4,6.5,2.7,1,3,6.925
17,AttF1,42,3.4,6.5,6.7,3.2,3.4,6.1,2,2,10.545
17,AttF2,43,3.5,6.4,6.7,3.2,6.3,3.2,3,3,7.454
17,AttF1,44,3.5,6.4,6.7,3.2,3.5,5.7,2,3,8.528
17,AttF2,47,3.5,6.5,6.6,3.4,6.0,3.4,3,3,7.103
17,AttR1,50,3.3,6.8,6.5,3.6,2.8,6.8,2,3,5.885
17,AttRF2,51,3.5,6.4,6.5,3.4,5.9,3.0,1,3,6.161
17,AttF1,56,3.2,6.8,6.5,3.5,3.2,6.2,2,3,5.903
17,AttF2,57,3.1,6.8,6.5,3.4,5.8,3.4,2,3,9.55
17,AttF2,58,3.2,6.9,6.6,3.5,6.1,3.5,1,1,6.878
17,AttR1,60,3.4,6.6,6.7,3.3,2.9,6.6,2,3,8.738
17,AttF2,61,3.5,6.6,6.7,3.4,6.0,3.4,2,3,8.736
17,AttR1,64,3.3,6.6,6.4,3.5,2.9,6.6,2,3,5.024
17,AttRF2,66,3.6,6.6,6.9,3.3,6.3,2.8,1,3,4.961
17,AttR1,67,3.5,6.6,6.9,3.2,3.1,6.6,3,3,5.265
17,AttF1,70,3.3,6.8,6.5,3.6,3.3,6.4,3,3,9.261
17,AttR1,71,3.3,6.8,6.5,3.6,2.8,6.8,3,3,5.247
17,AttF1,74,3.3,6.6,6.4,3.5,3.3,6.1,1,3,6.511
17,AttF1,75,3.4,6.6,6.7,3.3,3.4,6.1,3,3,13.391
17,AttF2,76,3.3,6.6,6.4,3.5,5.8,3.5,2,3,7.231
17,AttF1,77,3.5,6.5,6.6,3.4,3.5,5.9,1,3,8.736
17,AttF2,84,3.2,6.6,6.3,3.5,5.7,3.5,2,3,4.77
17,AttRF1,85,3.5,6.6,6.7,3.4,3.1,6.2,2,3,6.798
17,AttR2,88,3.5,6.7,6.6,3.6,6.6,2.9,2,3,6.256
17,AttF1,89,3.3,6.6,6.4,3.5,3.3,6.2,1,3,14.048
17,AttR1,90,3.5,6.4,6.5,3.4,3.1,6.4,2,3,5.07
17,AttRF2,95,3.0,6.9,6.8,3.1,6.2,2.5,2,3,8.095
17,AttF1,97,3.5,6.6,6.9,3.2,3.5,6.2,3,3,13.601
17,AttRF1,98,3.2,6.8,6.5,3.5,2.5,6.4,1,3,4.368
17,AttRF1,100,3.5,6.4,6.7,3.2,2.9,5.9,3,3,5.039
17,AttR1,102,3.2,6.6,6.3,3.5,2.7,6.6,1,3,7.664
17,AttR1,104,3.5,6.5,6.6,3.4,2.9,6.5,3,3,6.08
17,AttRF2,106,3.4,6.8,6.9,3.3,6.2,2.8,3,3,5.791
17,AttRF2,108,3.5,6.6,6.7,3.4,6.1,2.7,1,3,5.939
17,AttR2,113,3.2,6.8,6.5,3.5,6.5,3.0,2,3,10.397
17,AttR2,115,3.4,6.8,6.9,3.3,6.9,2.7,1,3,9.102
17,AttR2,116,3.2,6.9,6.6,3.5,6.6,3.1,3,3,8.353
17,AttF2,118,3.0,6.9,6.8,3.1,6.4,3.1,2,3,9.471
17,AttF1,119,3.3,6.8,6.5,3.6,3.3,6.4,3,3,14.366
17,AttF1,124,3.0,6.9,6.8,3.1,3.0,6.5,3,3,17.408
17,AttR1,125,3.5,6.4,6.7,3.2,2.8,6.4,3,3,5.809
17,AttRF2,127,3.5,6.4,6.7,3.2,6.1,2.7,3,3,4.898
17,AttRF1,128,3.5,6.7,6.6,3.6,2.9,6.1,1,3,11.84
17,AttF2,131,3.4,6.5,6.7,3.2,6.2,3.2,1,3,7.217
17,AttR1,133,3.1,6.8,6.5,3.4,2.5,6.8,2,3,3.839
17,AttR2,135,3.2,6.6,6.3,3.5,6.3,3.1,2,3,5.472
17,AttF1,139,3.5,6.6,6.7,3.4,3.5,6.0,2,3,5.6
17,AttRF2,140,3.5,6.6,6.5,3.6,6.0,3.2,1,3,8.237
17,AttR2,141,3.5,6.6,6.5,3.6,6.5,3.0,2,3,6.895
17,AttRF2,142,3.5,6.5,6.6,3.4,6.2,3.0,1,3,4.543
17,AttR2,143,3.4,6.6,6.7,3.3,6.7,2.6,3,3,3.039
17,AttRF2,146,3.5,6.6,6.9,3.2,6.2,2.7,1,3,4.319
17,AttF2,147,3.3,6.6,6.4,3.5,5.8,3.5,3,3,5.81
17,AttRF1,148,3.2,6.9,6.6,3.5,2.7,6.4,3,3,3.282
17,AttF1,149,3.4,6.8,6.9,3.3,3.4,6.1,1,3,6.191
17,AttRF1,150,3.2,6.6,6.3,3.5,2.6,6.2,2,3,6.27
17,AttR2,152,3.5,6.4,6.7,3.2,6.7,2.6,3,3,3.533
17,AttRF2,153,3.3,6.8,6.5,3.6,5.8,2.9,2,3,6.08
17,AttF2,154,3.4,6.6,6.7,3.3,6.1,3.3,1,3,4.031
17,AttRF1,155,3.3,6.8,6.5,3.6,2.9,6.1,1,3,3.711
17,AttRF1,159,3.3,6.8,6.5,3.6,2.9,6.1,1,3,4.734
17,AttRF2,160,3.2,6.9,6.6,3.5,6.1,3.1,1,3,5.68
17,AttF1,162,3.2,6.6,6.3,3.5,3.2,6.1,1,3,6.317
17,AttF2,164,3.6,6.6,6.9,3.3,6.3,3.3,3,3,4.624
17,AttR1,165,3.2,6.8,6.5,3.5,2.8,6.8,3,3,4.369
17,AttRF1,166,3.5,6.6,6.5,3.6,3.0,5.9,1,3,5.71
17,AttR1,178,3.4,6.5,6.7,3.2,2.8,6.5,1,3,2.461
17,AttF1,179,3.5,6.6,6.5,3.6,3.5,6.2,1,3,5.314
17,AttRF2,181,3.3,6.6,6.4,3.5,5.9,2.8,1,3,7.966
17,AttR2,184,3.3,6.8,6.5,3.6,6.5,2.9,3,3,8.927
17,AttRF1,185,3.3,6.6,6.4,3.5,2.7,5.9,2,3,5.359
17,AttR1,186,3.5,6.7,6.6,3.6,3.1,6.7,3,3,9.215
17,AttF1,188,3.1,6.8,6.5,3.4,3.1,6.1,1,3,4.719
17,AttRF1,189,3.6,6.6,6.9,3.3,3.0,6.1,2,3,4.512
17,AttR1,194,3.5,6.6,6.5,3.6,2.9,6.6,2,3,2.608
17,AttR2,195,3.0,6.9,6.8,3.1,6.8,2.5,3,3,3.343
17,AttRF2,196,3.1,6.8,6.5,3.4,5.9,2.8,2,3,2.895
17,AttR2,200,3.3,6.6,6.4,3.5,6.4,2.8,2,3,3.168
17,AttR2,204,3.3,6.6,6.4,3.5,6.4,2.9,3,3,4.272
17,AttR1,206,3.5,6.6,6.7,3.4,3.0,6.6,3,3,3.649
17,AttRF1,208,3.4,6.6,6.7,3.3,2.9,6.0,3,3,3.648
17,AttRF1,209,3.5,6.6,6.9,3.2,2.8,5.9,1,3,5.728
17,AttR2,212,3.6,6.6,6.9,3.3,6.9,2.6,3,3,3.871
17,AttF2,215,3.4,6.8,6.9,3.3,6.3,3.3,3,3,5.007
17,AttR2,216,3.5,6.6,6.7,3.4,6.7,3.0,3,3,3.743
17,AttF1,217,3.5,6.7,6.6,3.6,3.5,6.2,1,3,5.297
17,AttRF1,220,3.4,6.8,6.9,3.3,2.8,6.2,2,3,3.868
17,AttR2,222,3.1,6.8,6.5,3.4,6.5,2.9,1,3,4.348
17,AttR2,223,3.5,6.6,6.9,3.2,6.9,2.7,2,3,5.251
17,AttRF2,225,3.3,6.6,6.4,3.5,5.8,2.9,3,3,3.694
17,AttRF2,227,3.3,6.8,6.5,3.6,5.8,3.1,2,3,4.157
17,AttR2,229,3.4,6.5,6.7,3.2,6.7,2.6,1,3,3.392
17,AttRF2,230,3.4,6.6,6.7,3.3,6.2,2.7,1,3,3.584
17,AttRF2,231,3.2,6.6,6.3,3.5,5.8,2.9,2,3,5.777
17,AttF2,232,3.5,6.7,6.6,3.6,6.1,3.6,3,3,4.958
17,AttF2,233,3.2,6.8,6.5,3.5,6.1,3.5,3,3,5.678
17,AttRF1,234,3.3,6.6,6.4,3.5,2.7,6.1,3,3,4.192
17,AttRF2,237,3.5,6.7,6.6,3.6,6.0,3.2,2,3,7.409
17,AttF1,240,3.2,6.9,6.6,3.5,3.2,6.3,3,3,7.391
18,AttRF2,10,3.5,6.4,6.5,3.4,5.9,3.0,1,2,22.365
18,AttR1,12,3.3,6.8,6.5,3.6,2.8,6.8,1,1,6.356
18,AttRF1,14,3.2,6.8,6.5,3.5,2.5,6.4,3,1,8.029
18,AttRF2,15,3.5,6.6,6.7,3.4,6.1,2.7,3,2,7.459
18,AttR2,16,3.6,6.6,6.9,3.3,6.9,2.6,2,2,7.124
18,AttF1,18,3.5,6.5,6.6,3.4,3.5,5.9,1,1,5.667
18,AttR1,19,3.5,6.5,6.6,3.4,2.9,6.5,2,1,4.461
18,AttF2,21,3.2,6.8,6.5,3.5,6.1,3.5,3,2,7.036
18,AttR2,22,3.3,6.6,6.4,3.5,6.4,2.8,1,2,12.044
18,AttRF2,23,3.2,6.9,6.6,3.5,6.1,3.1,1,2,4.164
18,AttR2,24,3.4,6.5,6.7,3.2,6.7,2.6,1,2,3.247
18,AttF2,25,3.0,6.9,6.8,3.1,6.4,3.1,2,2,6.769
18,AttF2,27,3.5,6.6,6.5,3.6,5.9,3.6,2,2,14.403
18,AttRF2,28,3.2,6.6,6.3,3.5,5.8,2.9,2,2,5.202
18,AttR1,29,3.5,6.6,6.5,3.6,2.9,6.6,1,1,5.233
18,AttR1,30,3.1,6.8,6.5,3.4,2.5,6.8,2,1,4.539
18,AttF1,31,3.5,6.7,6.6,3.6,3.5,6.2,2,1,5.274
18,AttRF1,36,3.6,6.6,6.9,3.3,3.0,6.1,1,1,4.93
18,AttR1,37,3.3,6.6,6.4,3.5,2.9,6.6,1,1,5.379
18,AttF1,38,3.3,6.8,6.5,3.6,3.3,6.4,3,1,7.065
18,AttRF2,46,3.6,6.6,6.9,3.3,6.3,2.8,3,2,7.0
18,AttF2,47,3.5,6.4,6.5,3.4,5.8,3.4,1,2,5.656
18,AttR2,50,3.5,6.4,6.5,3.4,6.5,2.7,1,2,3.818
18,AttRF1,56,3.5,6.4,6.5,3.4,3.0,5.9,3,1,6.737
18,AttR2,57,3.5,6.6,6.9,3.2,6.9,2.7,3,2,3.388
18,AttR1,59,3.0,6.9,6.8,3.1,2.6,6.9,1,1,4.226
18,AttR1,61,3.5,6.7,6.6,3.6,3.1,6.7,1,1,5.003
18,AttF1,62,3.0,6.9,6.8,3.1,3.0,6.5,1,1,10.129
18,AttRF2,63,3.4,6.6,6.7,3.3,6.2,2.7,3,2,4.194
18,AttRF1,64,3.4,6.5,6.7,3.2,3.0,6.1,2,1,3.322
18,AttRF1,65,3.0,6.9,6.8,3.1,2.4,6.3,3,1,4.37
18,AttRF2,66,3.4,6.8,6.9,3.3,6.2,2.8,1,2,5.971
18,AttRF1,71,3.5,6.6,6.9,3.2,2.8,5.9,1,1,3.459
18,AttR2,72,3.4,6.8,6.9,3.3,6.9,2.7,1,2,2.793
18,AttR2,75,3.0,6.9,6.8,3.1,6.8,2.5,3,2,4.762
18,AttF1,80,3.4,6.8,6.9,3.3,3.4,6.1,3,1,5.835
18,AttRF1,82,3.5,6.4,6.7,3.2,2.9,5.9,2,1,5.441
18,AttR2,83,3.3,6.8,6.5,3.6,6.5,3.1,1,2,3.795
18,AttR2,86,3.5,6.7,6.6,3.6,6.6,2.9,3,2,3.633
18,AttRF1,87,3.3,6.6,6.4,3.5,2.7,5.9,3,1,5.785
18,AttF2,90,3.5,6.7,6.6,3.6,6.1,3.6,1,2,3.569
18,AttR2,93,3.2,6.9,6.6,3.5,6.6,3.1,3,2,2.498
18,AttR1,94,3.3,6.6,6.4,3.5,2.7,6.6,3,1,3.42
18,AttF2,96,3.3,6.8,6.5,3.6,5.9,3.6,3,2,4.234
18,AttR1,98,3.5,6.6,6.9,3.2,3.1,6.6,3,1,3.017
18,AttR2,99,3.4,6.6,6.7,3.3,6.7,2.6,2,2,2.61
18,AttF2,100,3.2,6.9,6.6,3.5,6.1,3.5,1,2,3.234
18,AttRF2,102,3.5,6.5,6.6,3.4,6.2,3.0,3,2,2.906
18,AttRF2,104,3.3,6.6,6.4,3.5,5.9,2.8,1,2,3.665
18,AttF2,106,3.4,6.6,6.7,3.3,6.1,3.3,3,2,3.746
18,AttRF2,108,3.5,6.6,6.9,3.2,6.2,2.7,2,2,3.594
18,AttRF1,109,3.1,6.8,6.5,3.4,2.4,6.2,1,1,3.304
18,AttF2,111,3.3,6.6,6.4,3.5,5.8,3.5,2,2,4.424
18,AttF1,112,3.2,6.9,6.6,3.5,3.2,6.3,2,1,8.289
18,AttR1,114,3.2,6.8,6.5,3.5,2.8,6.8,2,1,3.889
18,AttF2,115,3.5,6.6,6.7,3.4,6.0,3.4,2,2,2.922
18,AttRF2,116,3.5,6.6,6.5,3.6,6.0,3.2,2,2,4.168
18,AttRF2,118,3.1,6.8,6.5,3.4,5.9,2.8,1,2,4.194
18,AttF1,119,3.3,6.6,6.4,3.5,3.3,6.1,2,1,3.298
18,AttF2,120,3.4,6.8,6.9,3.3,6.3,3.3,2,2,2.484
18,AttF2,121,3.3,6.8,6.5,3.6,5.9,3.6,2,2,3.009
18,AttF1,123,3.5,6.6,6.9,3.2,3.5,6.2,1,1,3.81
18,AttR2,124,3.1,6.8,6.5,3.4,6.5,2.9,1,2,2.664
18,AttRF1,127,3.5,6.7,6.6,3.6,2.9,6.1,3,1,3.001
18,AttRF2,130,3.4,6.5,6.7,3.2,6.2,2.8,1,2,6.923
18,AttF1,131,3.2,6.6,6.3,3.5,3.2,6.1,2,1,3.465
18,AttRF1,132,3.2,6.6,6.3,3.5,2.6,6.2,1,1,3.602
18,AttR1,133,3.5,6.4,6.5,3.4,3.1,6.4,3,1,3.434
18,AttR2,136,3.5,6.6,6.5,3.6,6.5,3.0,2,2,2.897
18,AttRF1,137,3.5,6.6,6.5,3.6,3.0,5.9,2,1,3.906
18,AttF2,142,3.5,6.5,6.6,3.4,6.0,3.4,1,2,2.273
18,AttRF2,146,3.3,6.6,6.4,3.5,5.8,2.9,1,2,5.307
18,AttRF2,149,3.2,6.8,6.5,3.5,5.8,2.9,3,2,4.522
18,AttF2,150,3.5,6.6,6.9,3.2,6.4,3.2,2,2,2.995
18,AttR2,151,3.2,6.8,6.5,3.5,6.5,3.0,2,2,3.753
18,AttF2,153,3.5,6.4,6.7,3.2,6.3,3.2,3,2,4.146
18,AttF1,157,3.5,6.6,6.5,3.6,3.5,6.2,2,1,2.994
18,AttRF1,158,3.5,6.5,6.6,3.4,3.0,5.8,1,1,3.083
18,AttF2,159,3.2,6.6,6.3,3.5,5.7,3.5,1,2,3.074
18,AttF2,160,3.4,6.5,6.7,3.2,6.2,3.2,1,2,4.097
18,AttRF1,161,3.4,6.8,6.9,3.3,2.8,6.2,3,1,3.275
18,AttRF1,163,3.3,6.8,6.5,3.6,2.9,6.1,3,1,2.922
18,AttRF2,165,3.5,6.4,6.7,3.2,6.1,2.7,2,2,3.163
18,AttR1,167,3.4,6.6,6.7,3.3,2.9,6.6,1,1,2.881
18,AttR1,169,3.2,6.6,6.3,3.5,2.7,6.6,2,1,3.082
18,AttR2,170,3.2,6.6,6.3,3.5,6.3,3.1,2,2,2.347
18,AttR1,171,3.4,6.5,6.7,3.2,2.8,6.5,3,1,5.812
18,AttRF1,173,3.5,6.6,6.7,3.4,3.1,6.2,1,1,3.114
18,AttRF1,175,3.3,6.8,6.5,3.6,2.9,6.1,1,1,4.788
18,AttF1,176,3.5,6.4,6.7,3.2,3.5,5.7,2,3,4.954
18,AttRF2,177,3.3,6.8,6.5,3.6,5.8,2.9,1,2,2.729
18,AttR1,178,3.3,6.8,6.5,3.6,2.8,6.8,3,1,11.322
18,AttRF1,180,3.4,6.6,6.7,3.3,2.9,6.0,3,1,5.652
18,AttR2,182,3.3,6.8,6.5,3.6,6.5,2.9,2,2,3.095
18,AttRF1,183,3.2,6.9,6.6,3.5,2.7,6.4,1,1,3.771
18,AttF1,185,3.2,6.8,6.5,3.5,3.2,6.2,3,1,3.586
18,AttF1,187,3.1,6.8,6.5,3.4,3.1,6.1,2,1,2.251
18,AttR1,190,3.5,6.6,6.7,3.4,3.0,6.6,3,1,2.418
18,AttR2,191,3.3,6.6,6.4,3.5,6.4,2.9,2,2,1.939
18,AttRF2,192,3.3,6.8,6.5,3.6,5.8,3.1,2,2,3.937
18,AttF1,194,3.4,6.5,6.7,3.2,3.4,6.1,2,1,2.57
18,AttF2,198,3.3,6.6,6.4,3.5,5.8,3.5,2,2,3.69
18,AttRF2,199,3.0,6.9,6.8,3.1,6.2,2.5,2,2,2.338
18,AttR1,200,3.2,6.9,6.6,3.5,2.6,6.9,2,3,3.034
18,AttR2,203,3.5,6.4,6.7,3.2,6.7,2.6,1,2,2.152
18,AttF1,205,3.5,6.4,6.5,3.4,3.5,5.9,2,1,2.026
18,AttF1,209,3.6,6.6,6.9,3.3,3.6,5.9,1,1,3.274
18,AttR1,215,3.4,6.8,6.9,3.3,2.9,6.8,3,1,4.904
18,AttR2,218,3.5,6.6,6.7,3.4,6.7,3.0,2,2,2.586
18,AttR1,221,3.6,6.6,6.9,3.3,3.2,6.6,3,1,3.034
18,AttF2,223,3.1,6.8,6.5,3.4,5.8,3.4,1,2,3.113
18,AttR1,224,3.5,6.4,6.7,3.2,2.8,6.4,1,1,1.795
18,AttF1,225,3.3,6.6,6.4,3.5,3.3,6.2,3,1,2.417
18,AttR2,226,3.5,6.5,6.6,3.4,6.6,3.0,2,2,2.811
18,AttF2,227,3.6,6.6,6.9,3.3,6.3,3.3,2,2,3.594
18,AttF1,232,3.5,6.6,6.7,3.4,3.5,6.0,3,1,2.434
18,AttRF1,233,3.3,6.6,6.4,3.5,2.7,6.1,2,1,7.602
18,AttRF2,237,3.5,6.7,6.6,3.6,6.0,3.2,3,2,5.667
18,AttF1,238,3.3,6.8,6.5,3.6,3.3,6.4,1,1,3.402
18,AttF1,239,3.4,6.6,6.7,3.3,3.4,6.1,1,1,6.112
19,AttR2,2,3.5,6.4,6.7,3.2,6.7,2.6,1,1,9.684
19,AttRF1,4,3.3,6.8,6.5,3.6,2.9,6.1,3,1,22.499
19,AttR2,6,3.4,6.5,6.7,3.2,6.7,2.6,1,1,9.122
19,AttR2,7,3.4,6.6,6.7,3.3,6.7,2.6,1,2,7.152
19,AttRF1,9,3.5,6.6,6.5,3.6,3.0,5.9,2,2,11.634
19,AttR1,10,3.5,6.6,6.7,3.4,3.0,6.6,1,1,13.041
19,AttRF2,11,3.3,6.8,6.5,3.6,5.8,2.9,3,1,25.732
19,AttF2,14,3.4,6.8,6.9,3.3,6.3,3.3,1,2,9.796
19,AttF1,17,3.6,6.6,6.9,3.3,3.6,5.9,3,1,8.275
19,AttRF1,18,3.3,6.6,6.4,3.5,2.7,5.9,3,2,10.773
19,AttRF2,19,3.5,6.7,6.6,3.6,6.0,3.2,3,1,14.08
19,AttRF1,21,3.5,6.4,6.5,3.4,3.0,5.9,1,1,9.027
19,AttRF2,23,3.4,6.5,6.7,3.2,6.2,2.8,1,1,14.883
19,AttR1,27,3.4,6.6,6.7,3.3,2.9,6.6,3,1,3.485
19,AttF2,29,3.4,6.5,6.7,3.2,6.2,3.2,1,2,2.88
19,AttF1,32,3.3,6.6,6.4,3.5,3.3,6.1,3,2,5.553
19,AttR1,33,3.1,6.8,6.5,3.4,2.5,6.8,1,2,11.839
19,AttR2,37,3.5,6.6,6.7,3.4,6.7,3.0,1,2,5.186
19,AttF1,42,3.5,6.7,6.6,3.6,3.5,6.2,2,2,7.872
19,AttRF1,47,3.0,6.9,6.8,3.1,2.4,6.3,1,2,6.462
19,AttF1,48,3.2,6.9,6.6,3.5,3.2,6.3,2,2,6.543
19,AttF2,49,3.0,6.9,6.8,3.1,6.4,3.1,1,2,9.283
19,AttF1,50,3.2,6.8,6.5,3.5,3.2,6.2,2,2,7.214
19,AttRF1,51,3.3,6.8,6.5,3.6,2.9,6.1,3,2,2.977
19,AttF2,52,3.3,6.8,6.5,3.6,5.9,3.6,3,2,6.015
19,AttRF2,53,3.5,6.6,6.5,3.6,6.0,3.2,1,2,8.495
19,AttF1,54,3.3,6.6,6.4,3.5,3.3,6.2,3,2,4.928
19,AttRF1,55,3.5,6.6,6.9,3.2,2.8,5.9,1,1,35.185
19,AttR2,57,3.5,6.7,6.6,3.6,6.6,2.9,3,1,1.17
19,AttF1,58,3.4,6.5,6.7,3.2,3.4,6.1,3,1,18.982
19,AttRF1,61,3.6,6.6,6.9,3.3,3.0,6.1,1,2,3.247
19,AttF1,62,3.5,6.6,6.7,3.4,3.5,6.0,2,1,5.366
19,AttR2,64,3.1,6.8,6.5,3.4,6.5,2.9,3,2,4.542
19,AttRF1,66,3.2,6.9,6.6,3.5,2.7,6.4,3,1,3.071
19,AttF1,69,3.5,6.4,6.7,3.2,3.5,5.7,1,2,3.424
19,AttF1,71,3.4,6.8,6.9,3.3,3.4,6.1,1,1,5.248
19,AttRF2,72,3.4,6.8,6.9,3.3,6.2,2.8,2,1,5.807
19,AttR2,73,3.3,6.8,6.5,3.6,6.5,3.1,3,2,5.471
19,AttRF1,74,3.5,6.6,6.7,3.4,3.1,6.2,2,1,10.607
19,AttRF2,76,3.5,6.6,6.7,3.4,6.1,2.7,1,1,4.158
19,AttF2,81,3.5,6.6,6.7,3.4,6.0,3.4,3,1,6.509
19,AttF2,83,3.5,6.6,6.5,3.6,5.9,3.6,1,1,7.998
19,AttRF2,86,3.5,6.6,6.9,3.2,6.2,2.7,3,1,3.886
19,AttF2,88,3.4,6.6,6.7,3.3,6.1,3.3,3,1,4.561
19,AttRF2,90,3.5,6.4,6.7,3.2,6.1,2.7,1,1,3.984
19,AttRF2,91,3.2,6.8,6.5,3.5,5.8,2.9,2,1,4.08
19,AttR2,94,3.3,6.6,6.4,3.5,6.4,2.8,1,2,4.495
19,AttR1,96,3.5,6.7,6.6,3.6,3.1,6.7,1,1,7.822
19,AttF2,99,3.2,6.9,6.6,3.5,6.1,3.5,2,2,5.199
19,AttF2,101,3.1,6.8,6.5,3.4,5.8,3.4,3,2,6.591
19,AttRF2,102,3.2,6.9,6.6,3.5,6.1,3.1,3,2,13.312
19,AttRF2,104,3.3,6.6,6.4,3.5,5.8,2.9,3,2,2.463
19,AttR1,105,3.3,6.8,6.5,3.6,2.8,6.8,1,2,6.034
19,AttRF2,107,3.6,6.6,6.9,3.3,6.3,2.8,3,1,7.267
19,AttRF1,109,3.2,6.8,6.5,3.5,2.5,6.4,2,2,3.648
19,AttF1,110,3.1,6.8,6.5,3.4,3.1,6.1,1,2,12.735
19,AttR2,112,3.5,6.6,6.9,3.2,6.9,2.7,1,1,5.152
19,AttRF1,113,3.4,6.8,6.9,3.3,2.8,6.2,2,1,4.51
19,AttR1,115,3.5,6.4,6.5,3.4,3.1,6.4,1,2,6.895
19,AttR1,117,3.6,6.6,6.9,3.3,3.2,6.6,3,1,9.424
19,AttF1,120,3.5,6.6,6.9,3.2,3.5,6.2,1,1,11.839
19,AttRF2,121,3.1,6.8,6.5,3.4,5.9,2.8,2,2,9.983
19,AttF2,127,3.2,6.8,6.5,3.5,6.1,3.5,1,1,5.104
19,AttF2,128,3.5,6.4,6.5,3.4,5.8,3.4,1,2,3.519
19,AttR1,130,3.3,6.6,6.4,3.5,2.7,6.6,1,2,3.423
19,AttF2,131,3.3,6.8,6.5,3.6,5.9,3.6,2,3,5.439
19,AttRF1,135,3.4,6.5,6.7,3.2,3.0,6.1,2,1,3.251
19,AttF1,136,3.3,6.8,6.5,3.6,3.3,6.4,1,2,3.759
19,AttR2,138,3.4,6.8,6.9,3.3,6.9,2.7,1,3,4.084
19,AttF1,139,3.5,6.6,6.5,3.6,3.5,6.2,3,2,3.504
19,AttR2,144,3.5,6.4,6.5,3.4,6.5,2.7,2,1,4.383
19,AttR2,145,3.6,6.6,6.9,3.3,6.9,2.6,3,1,4.528
19,AttRF1,151,3.5,6.5,6.6,3.4,3.0,5.8,2,1,3.057
19,AttR2,152,3.5,6.6,6.5,3.6,6.5,3.0,3,2,4.192
19,AttF2,155,3.2,6.6,6.3,3.5,5.7,3.5,3,1,6.719
19,AttRF1,156,3.3,6.6,6.4,3.5,2.7,6.1,2,1,3.073
19,AttF2,160,3.3,6.6,6.4,3.5,5.8,3.5,2,3,3.44
19,AttRF1,166,3.1,6.8,6.5,3.4,2.4,6.2,1,2,2.433
19,AttF1,168,3.2,6.6,6.3,3.5,3.2,6.1,3,2,3.071
19,AttRF2,171,3.0,6.9,6.8,3.1,6.2,2.5,2,2,4.544
19,AttF1,172,3.4,6.6,6.7,3.3,3.4,6.1,2,1,4.08
19,AttR1,173,3.2,6.8,6.5,3.5,2.8,6.8,2,2,3.634
19,AttRF1,174,3.2,6.6,6.3,3.5,2.6,6.2,3,2,3.455
19,AttF1,175,3.3,6.8,6.5,3.6,3.3,6.4,2,1,2.799
19,AttF2,177,3.5,6.4,6.7,3.2,6.3,3.2,1,1,8.031
19,AttR1,180,3.5,6.4,6.7,3.2,2.8,6.4,2,1,3.103
19,AttR1,181,3.4,6.8,6.9,3.3,2.9,6.8,2,1,6.11
19,AttF2,182,3.5,6.5,6.6,3.4,6.0,3.4,3,2,3.064
19,AttRF1,183,3.5,6.4,6.7,3.2,2.9,5.9,2,1,3.149
19,AttF2,184,3.5,6.6,6.9,3.2,6.4,3.2,3,2,2.256
19,AttRF1,185,3.4,6.6,6.7,3.3,2.9,6.0,2,1,3.711
19,AttR2,188,3.2,6.9,6.6,3.5,6.6,3.1,1,2,7.022
19,AttR1,190,3.5,6.6,6.9,3.2,3.1,6.6,3,3,2.912
19,AttRF2,191,3.2,6.6,6.3,3.5,5.8,2.9,1,2,3.118
19,AttR2,192,3.0,6.9,6.8,3.1,6.8,2.5,2,2,2.995
19,AttR1,195,3.2,6.9,6.6,3.5,2.6,6.9,2,2,3.312
19,AttR1,196,3.3,6.6,6.4,3.5,2.9,6.6,3,2,3.154
19,AttF1,201,3.5,6.5,6.6,3.4,3.5,5.9,3,1,3.807
19,AttR2,204,3.2,6.6,6.3,3.5,6.3,3.1,2,2,2.577
19,AttRF2,205,3.5,6.5,6.6,3.4,6.2,3.0,1,2,2.833
19,AttR1,207,3.5,6.6,6.5,3.6,2.9,6.6,2,2,2.787
19,AttR1,208,3.4,6.5,6.7,3.2,2.8,6.5,1,3,4.03
19,AttR2,211,3.2,6.8,6.5,3.5,6.5,3.0,1,1,3.088
19,AttF2,212,3.6,6.6,6.9,3.3,6.3,3.3,2,2,4.113
19,AttF2,213,3.3,6.6,6.4,3.5,5.8,3.5,3,3,3.007
19,AttR1,216,3.3,6.8,6.5,3.6,2.8,6.8,3,2,3.072
19,AttF1,217,3.0,6.9,6.8,3.1,3.0,6.5,2,3,2.513
19,AttR2,219,3.3,6.8,6.5,3.6,6.5,2.9,3,2,2.991
19,AttR1,220,3.2,6.6,6.3,3.5,2.7,6.6,2,2,2.274
19,AttF2,221,3.5,6.7,6.6,3.6,6.1,3.6,1,2,2.992
19,AttR1,224,3.0,6.9,6.8,3.1,2.6,6.9,2,2,2.45
19,AttR2,225,3.3,6.6,6.4,3.5,6.4,2.9,1,2,2.733
19,AttRF2,227,3.5,6.4,6.5,3.4,5.9,3.0,1,3,2.176
19,AttR2,228,3.5,6.5,6.6,3.4,6.6,3.0,2,3,3.024
19,AttF1,229,3.5,6.4,6.5,3.4,3.5,5.9,1,2,2.544
19,AttRF2,230,3.3,6.6,6.4,3.5,5.9,2.8,1,2,2.8
19,AttR1,231,3.5,6.5,6.6,3.4,2.9,6.5,3,1,2.467
19,AttRF2,234,3.4,6.6,6.7,3.3,6.2,2.7,1,2,2.525
19,AttRF2,236,3.3,6.8,6.5,3.6,5.8,3.1,3,3,2.128
19,AttRF1,240,3.5,6.7,6.6,3.6,2.9,6.1,1,2,2.896
20,AttF2,1,3.2,6.8,6.5,3.5,6.1,3.5,3,1,26.326
20,AttRF2,6,3.5,6.6,6.5,3.6,6.0,3.2,3,2,16.034
20,AttR1,7,3.5,6.6,6.5,3.6,2.9,6.6,2,1,10.385
20,AttRF2,8,3.2,6.9,6.6,3.5,6.1,3.1,3,1,5.797
20,AttRF1,9,3.3,6.6,6.4,3.5,2.7,5.9,1,1,9.778
20,AttR1,11,3.4,6.6,6.7,3.3,2.9,6.6,2,1,7.553
20,AttR2,13,3.2,6.9,6.6,3.5,6.6,3.1,3,1,6.674
20,AttF1,16,3.5,6.4,6.7,3.2,3.5,5.7,2,2,7.107
20,AttF2,18,3.4,6.8,6.9,3.3,6.3,3.3,2,2,7.795
20,AttRF2,22,3.6,6.6,6.9,3.3,6.3,2.8,1,2,9.331
20,AttRF1,23,3.5,6.4,6.5,3.4,3.0,5.9,3,2,9.219
20,AttRF2,24,3.4,6.6,6.7,3.3,6.2,2.7,3,2,3.538
20,AttF2,27,3.2,6.9,6.6,3.5,6.1,3.5,3,1,6.687
20,AttR2,28,3.4,6.6,6.7,3.3,6.7,2.6,1,2,6.031
20,AttR1,31,3.3,6.8,6.5,3.6,2.8,6.8,1,2,10.336
20,AttRF2,33,3.2,6.6,6.3,3.5,5.8,2.9,1,2,15.649
20,AttR2,36,3.3,6.8,6.5,3.6,6.5,3.1,3,1,7.742
20,AttRF1,37,3.2,6.9,6.6,3.5,2.7,6.4,2,1,6.895
20,AttR2,38,3.2,6.6,6.3,3.5,6.3,3.1,3,2,12.528
20,AttF2,39,3.3,6.6,6.4,3.5,5.8,3.5,1,1,4.529
20,AttF1,40,3.2,6.9,6.6,3.5,3.2,6.3,1,1,3.744
20,AttR1,41,3.4,6.8,6.9,3.3,2.9,6.8,3,2,4.014
20,AttR1,43,3.5,6.7,6.6,3.6,3.1,6.7,3,1,8.786
20,AttR1,47,3.3,6.6,6.4,3.5,2.9,6.6,1,1,6.142
20,AttRF2,49,3.4,6.8,6.9,3.3,6.2,2.8,3,2,9.247
20,AttR2,53,3.5,6.6,6.9,3.2,6.9,2.7,3,2,4.594
20,AttF1,54,3.5,6.6,6.9,3.2,3.5,6.2,3,2,5.294
20,AttRF2,55,3.3,6.8,6.5,3.6,5.8,2.9,1,1,4.145
20,AttRF2,61,3.2,6.8,6.5,3.5,5.8,2.9,1,1,4.672
20,AttRF2,65,3.0,6.9,6.8,3.1,6.2,2.5,2,1,6.015
20,AttF2,67,3.5,6.4,6.5,3.4,5.8,3.4,2,3,6.704
20,AttF2,69,3.2,6.6,6.3,3.5,5.7,3.5,2,2,8.054
20,AttF2,70,3.3,6.6,6.4,3.5,5.8,3.5,2,1,7.534
20,AttR1,72,3.4,6.5,6.7,3.2,2.8,6.5,2,1,7.44
20,AttR2,73,3.5,6.6,6.5,3.6,6.5,3.0,2,1,6.622
20,AttR2,75,3.0,6.9,6.8,3.1,6.8,2.5,1,1,7.711
20,AttR2,76,3.6,6.6,6.9,3.3,6.9,2.6,2,3,11.247
20,AttF2,78,3.3,6.8,6.5,3.6,5.9,3.6,2,2,5.249
20,AttF1,80,3.6,6.6,6.9,3.3,3.6,5.9,2,2,6.065
20,AttRF1,81,3.4,6.8,6.9,3.3,2.8,6.2,3,2,2.798
20,AttR1,82,3.5,6.6,6.7,3.4,3.0,6.6,1,2,13.648
20,AttRF1,83,3.5,6.7,6.6,3.6,2.9,6.1,2,2,2.481
20,AttR2,85,3.3,6.6,6.4,3.5,6.4,2.8,2,2,3.966
20,AttRF2,86,3.3,6.6,6.4,3.5,5.9,2.8,2,2,4.848
20,AttF1,87,3.3,6.6,6.4,3.5,3.3,6.2,3,1,5.423
20,AttR2,89,3.5,6.4,6.7,3.2,6.7,2.6,2,2,3.761
20,AttF2,90,3.5,6.6,6.5,3.6,5.9,3.6,1,2,6.318
20,AttF2,91,3.4,6.6,6.7,3.3,6.1,3.3,2,2,9.361
20,AttR2,92,3.5,6.6,6.7,3.4,6.7,3.0,3,1,10.111
20,AttR2,99,3.5,6.7,6.6,3.6,6.6,2.9,2,2,3.535
20,AttF2,100,3.5,6.6,6.9,3.2,6.4,3.2,3,2,4.943
20,AttRF2,101,3.5,6.7,6.6,3.6,6.0,3.2,3,1,4.671
20,AttF1,105,3.4,6.8,6.9,3.3,3.4,6.1,2,2,2.831
20,AttRF1,107,3.3,6.8,6.5,3.6,2.9,6.1,2,2,4.671
20,AttR1,109,3.2,6.6,6.3,3.5,2.7,6.6,2,1,5.139
20,AttR2,111,3.5,6.4,6.5,3.4,6.5,2.7,1,2,5.745
20,AttR1,113,3.5,6.6,6.9,3.2,3.1,6.6,3,2,2.898
20,AttF2,114,3.5,6.4,6.7,3.2,6.3,3.2,2,2,2.703
20,AttRF2,116,3.5,6.6,6.9,3.2,6.2,2.7,1,2,3.473
20,AttR1,117,3.3,6.8,6.5,3.6,2.8,6.8,3,1,3.65
20,AttR1,119,3.3,6.6,6.4,3.5,2.7,6.6,3,1,5.039
20,AttR2,122,3.2,6.8,6.5,3.5,6.5,3.0,2,3,1.207
20,AttR1,123,3.5,6.4,6.5,3.4,3.1,6.4,1,1,2.007
20,AttF1,125,3.2,6.6,6.3,3.5,3.2,6.1,3,1,2.849
20,AttF1,126,3.4,6.6,6.7,3.3,3.4,6.1,2,3,3.088
20,AttR2,127,3.3,6.8,6.5,3.6,6.5,2.9,1,2,3.855
20,AttF2,130,3.0,6.9,6.8,3.1,6.4,3.1,1,3,3.73
20,AttR1,132,3.1,6.8,6.5,3.4,2.5,6.8,3,2,2.943
20,AttRF2,133,3.5,6.6,6.7,3.4,6.1,2.7,2,3,1.454
20,AttRF1,134,3.4,6.5,6.7,3.2,3.0,6.1,2,2,2.454
20,AttR2,140,3.5,6.5,6.6,3.4,6.6,3.0,3,3,3.155
20,AttF1,141,3.5,6.6,6.5,3.6,3.5,6.2,1,3,2.064
20,AttR2,146,3.4,6.5,6.7,3.2,6.7,2.6,2,2,2.862
20,AttRF1,147,3.6,6.6,6.9,3.3,3.0,6.1,1,1,1.857
20,AttRF1,149,3.3,6.8,6.5,3.6,2.9,6.1,2,1,2.512
20,AttR1,151,3.5,6.5,6.6,3.4,2.9,6.5,2,1,3.519
20,AttRF1,153,3.2,6.8,6.5,3.5,2.5,6.4,2,2,2.158
20,AttF1,154,3.3,6.6,6.4,3.5,3.3,6.1,2,2,1.631
20,AttF1,156,3.0,6.9,6.8,3.1,3.0,6.5,3,2,2.079
20,AttRF1,157,3.5,6.6,6.5,3.6,3.0,5.9,2,2,2.577
20,AttF1,159,3.2,6.8,6.5,3.5,3.2,6.2,1,2,1.823
20,AttR2,160,3.4,6.8,6.9,3.3,6.9,2.7,2,1,2.224
20,AttRF1,162,3.5,6.4,6.7,3.2,2.9,5.9,1,2,2.193
20,AttF1,163,3.5,6.5,6.6,3.4,3.5,5.9,1,3,3.199
20,AttF2,164,3.3,6.8,6.5,3.6,5.9,3.6,2,2,2.542
20,AttR2,165,3.3,6.6,6.4,3.5,6.4,2.9,3,2,1.968
20,AttF1,167,3.5,6.6,6.7,3.4,3.5,6.0,1,1,1.456
20,AttRF1,168,3.4,6.6,6.7,3.3,2.9,6.0,2,2,3.288
20,AttRF1,169,3.3,6.6,6.4,3.5,2.7,6.1,3,1,2.286
20,AttRF1,172,3.5,6.6,6.9,3.2,2.8,5.9,2,1,2.463
20,AttF2,175,3.6,6.6,6.9,3.3,6.3,3.3,2,2,3.218
20,AttR1,177,3.2,6.9,6.6,3.5,2.6,6.9,2,3,4.431
20,AttF1,179,3.5,6.7,6.6,3.6,3.5,6.2,3,3,2.256
20,AttRF1,180,3.2,6.6,6.3,3.5,2.6,6.2,2,3,3.215
20,AttF1,185,3.4,6.5,6.7,3.2,3.4,6.1,3,1,3.087
20,AttRF1,187,3.5,6.5,6.6,3.4,3.0,5.8,1,3,1.79
20,AttRF1,188,3.1,6.8,6.5,3.4,2.4,6.2,2,2,1.329
20,AttRF2,189,3.5,6.4,6.7,3.2,6.1,2.7,2,3,1.13
20,AttF1,192,3.3,6.8,6.5,3.6,3.3,6.4,2,2,1.407
20,AttF2,193,3.4,6.5,6.7,3.2,6.2,3.2,3,1,1.703
20,AttRF1,194,3.0,6.9,6.8,3.1,2.4,6.3,2,1,3.459
20,AttF1,195,3.5,6.4,6.5,3.4,3.5,5.9,2,1,1.76
20,AttF1,199,3.1,6.8,6.5,3.4,3.1,6.1,3,1,2.099
20,AttRF1,206,3.5,6.6,6.7,3.4,3.1,6.2,3,1,2.174
20,AttRF2,208,3.5,6.5,6.6,3.4,6.2,3.0,2,1,2.833
20,AttR1,209,3.0,6.9,6.8,3.1,2.6,6.9,3,2,4.798
20,AttF2,211,3.5,6.6,6.7,3.4,6.0,3.4,3,2,2.047
20,AttF2,213,3.5,6.7,6.6,3.6,6.1,3.6,3,2,3.455
20,AttR1,214,3.2,6.8,6.5,3.5,2.8,6.8,2,2,1.857
