Sub,Effect,Trial,A1,A2,B1,B2,C1,C2,resp,response,RT
2,Com2,1,6.6,4.5,5.6,5.5,4.5,6.6,2,2,16.629
2,Com2,3,6.4,4.7,5.5,5.6,4.6,6.5,2,2,17.297
2,Com3,4,5.7,5.5,4.7,6.5,3.8,7.4,3,1,9.252
2,Com3,9,5.4,5.6,4.3,6.7,3.4,7.6,1,1,6.532
2,Com1,10,7.4,3.8,6.6,4.6,5.5,5.7,2,1,7.04
2,Com3,12,5.4,5.4,4.5,6.3,3.3,7.5,2,2,4.532
2,Com1,14,7.7,3.5,6.6,4.6,5.7,5.5,1,3,4.995
2,Com3,16,5.4,5.6,4.5,6.5,3.4,7.6,3,2,6.112
2,Com1,19,7.6,3.4,6.6,4.4,5.6,5.4,1,3,5.01
2,Com2,22,6.7,4.4,5.6,5.5,4.5,6.6,3,3,6.337
2,Com3,23,5.6,5.5,4.5,6.6,3.6,7.5,1,2,6.547
2,Com2,24,6.3,4.6,5.4,5.5,4.4,6.5,2,3,9.602
2,Com2,29,6.6,4.4,5.6,5.4,4.7,6.3,1,1,8.623
2,Com1,33,7.8,3.1,6.8,4.1,5.7,5.2,1,2,9.599
2,Com2,34,6.5,4.5,5.5,5.5,4.5,6.5,2,1,6.08
2,Com3,35,5.5,5.7,4.6,6.6,3.5,7.7,2,1,7.33
2,Com2,37,6.3,4.6,5.4,5.5,4.3,6.6,3,1,8.304
2,Com1,42,7.4,3.6,6.6,4.4,5.5,5.5,2,2,9.006
2,Com3,45,5.6,5.5,4.5,6.6,3.5,7.6,3,1,6.462
2,Com2,53,6.3,4.6,5.4,5.5,4.5,6.4,1,1,9.312
2,Com3,54,5.5,5.5,4.4,6.6,3.5,7.5,3,2,6.543
2,Com1,58,7.5,3.4,6.3,4.6,5.4,5.5,3,2,6.191
2,Com2,64,6.8,4.1,5.7,5.2,4.8,6.1,3,3,11.104
2,Com2,66,6.6,4.2,5.6,5.2,4.5,6.3,2,1,6.434
2,Com3,67,5.6,5.3,4.7,6.2,3.6,7.3,3,2,9.725
2,Com1,68,7.5,3.5,6.5,4.5,5.4,5.6,1,3,10.978
2,Com1,70,7.6,3.3,6.5,4.4,5.6,5.3,3,3,8.479
2,Com2,73,6.6,4.5,5.6,5.5,4.6,6.5,1,1,4.928
2,Com1,76,7.6,3.5,6.4,4.7,5.5,5.6,3,2,4.465
2,Com3,77,5.4,5.4,4.5,6.3,3.4,7.4,3,2,3.518
2,Com2,78,6.4,4.5,5.4,5.5,4.3,6.6,3,1,7.808
2,Com1,81,7.4,3.3,6.4,4.3,5.3,5.4,2,3,8.304
2,Com3,83,5.4,5.4,4.4,6.4,3.3,7.5,3,2,4.287
2,Com1,84,7.6,3.2,6.6,4.2,5.6,5.2,2,2,6.961
2,Com1,86,7.6,3.4,6.5,4.5,5.5,5.5,3,2,2.847
2,Com2,87,6.5,4.4,5.4,5.5,4.4,6.5,3,2,3.072
2,Com2,90,6.5,4.4,5.5,5.4,4.4,6.5,3,1,8.403
2,Com1,91,7.3,3.5,6.4,4.4,5.4,5.4,1,2,6.8
2,Com1,92,7.5,3.3,6.4,4.4,5.4,5.4,1,2,3.137
2,Com3,94,5.6,5.2,4.5,6.3,3.6,7.2,1,1,4.914
2,Com1,97,7.3,3.6,6.3,4.6,5.4,5.5,2,3,4.381
2,Com1,102,7.5,3.4,6.4,4.5,5.4,5.5,3,2,4.497
2,Com2,104,6.5,4.6,5.6,5.5,4.7,6.4,2,1,6.35
2,Com3,105,5.4,5.6,4.3,6.7,3.4,7.6,3,2,7.551
2,Com1,106,7.5,3.5,6.6,4.4,5.6,5.4,1,2,3.664
2,Com1,107,7.4,3.5,6.5,4.4,5.5,5.4,1,3,3.843
2,Com2,108,6.4,4.4,5.4,5.4,4.4,6.4,2,3,4.206
2,Com2,111,6.5,4.3,5.6,5.2,4.5,6.3,2,1,3.807
2,Com1,115,7.6,3.5,6.5,4.6,5.5,5.6,1,2,7.951
2,Com1,116,7.6,3.3,6.5,4.4,5.5,5.4,2,3,2.592
2,Com3,117,5.5,5.5,4.5,6.5,3.4,7.6,3,2,3.344
2,Com3,118,5.7,5.2,4.8,6.1,3.7,7.2,1,1,3.871
2,Com2,119,6.3,4.5,5.4,5.4,4.5,6.3,2,3,3.106
2,Com2,120,6.2,4.9,5.3,5.8,4.2,6.9,1,2,4.883
2,Com3,123,5.6,5.2,4.5,6.3,3.5,7.3,1,1,3.955
2,Com2,124,6.6,4.9,5.7,5.8,4.6,6.9,3,2,8.624
2,Com1,128,7.6,3.5,6.6,4.5,5.6,5.5,3,2,5.855
2,Com2,131,6.4,4.6,5.4,5.6,4.3,6.7,2,3,6.127
2,Com2,132,6.6,4.4,5.6,5.4,4.7,6.3,3,3,3.827
2,Com1,133,7.2,3.7,6.2,4.7,5.3,5.6,1,2,5.759
2,Com2,134,6.5,4.6,5.5,5.6,4.5,6.6,2,1,2.878
2,Com2,135,6.5,4.4,5.5,5.4,4.4,6.5,3,3,3.473
2,Com1,136,7.4,3.5,6.5,4.4,5.4,5.5,3,2,4.451
2,Com3,139,5.6,5.5,4.7,6.4,3.5,7.6,3,2,6.336
2,Com2,140,6.6,4.6,5.5,5.7,4.6,6.6,2,2,3.647
2,Com1,141,7.7,3.4,6.5,4.6,5.6,5.5,2,2,6.926
2,Com1,143,7.0,3.5,6.2,4.3,5.1,5.4,1,2,4.335
2,Com1,145,7.5,3.4,6.3,4.6,5.4,5.5,3,2,3.39
2,Com1,146,7.6,3.5,6.4,4.7,5.5,5.6,2,3,3.505
2,Com3,147,5.6,5.4,4.7,6.3,3.5,7.5,2,2,4.241
2,Com1,148,7.5,3.6,6.4,4.7,5.5,5.6,2,2,2.242
2,Com1,149,7.5,3.6,6.6,4.5,5.5,5.6,3,2,5.486
2,Com3,150,5.5,5.5,4.6,6.4,3.4,7.6,2,2,6.448
2,Com2,151,6.6,4.4,5.5,5.5,4.4,6.6,1,1,5.089
2,Com3,152,5.4,5.5,4.5,6.4,3.3,7.6,1,2,5.47
2,Com2,154,6.5,4.5,5.4,5.6,4.5,6.5,1,1,3.088
2,Com2,157,6.2,4.7,5.3,5.6,4.2,6.7,2,1,3.569
2,Com2,158,6.6,4.6,5.7,5.5,4.7,6.5,2,3,2.866
2,Com3,164,5.5,5.6,4.5,6.6,3.5,7.6,3,2,6.846
2,Com1,165,7.4,3.7,6.2,4.9,5.3,5.8,3,2,3.358
2,Com3,167,5.6,5.4,4.7,6.3,3.6,7.4,2,2,6.669
2,Com1,168,7.4,3.6,6.4,4.6,5.4,5.6,2,3,2.128
2,Com1,170,7.7,3.1,6.5,4.3,5.6,5.2,1,2,6.671
2,Com1,173,7.7,3.4,6.6,4.5,5.6,5.5,1,3,5.584
2,Com1,174,7.5,3.5,6.6,4.4,5.5,5.5,3,2,2.43
2,Com3,176,5.6,5.5,4.6,6.5,3.5,7.6,1,1,7.679
2,Com3,177,5.4,5.5,4.3,6.6,3.4,7.5,1,1,2.833
2,Com2,178,6.5,4.4,5.6,5.3,4.7,6.2,3,3,1.199
2,Com3,182,5.3,5.8,4.2,6.9,3.4,7.7,1,1,8.68
2,Com3,183,5.4,5.5,4.4,6.5,3.4,7.5,3,2,2.383
2,Com1,185,7.6,3.5,6.5,4.6,5.6,5.5,3,2,3.471
2,Com3,186,5.4,5.4,4.4,6.4,3.5,7.3,3,2,2.512
2,Com1,187,7.8,3.7,6.6,4.9,5.7,5.8,3,2,2.448
2,Com3,188,5.5,5.6,4.5,6.6,3.5,7.6,2,2,6.256
2,Com3,193,5.5,5.4,4.4,6.5,3.4,7.5,2,2,3.087
2,Com3,194,5.5,5.6,4.6,6.5,3.6,7.5,3,2,2.063
2,Com2,195,6.4,4.3,5.3,5.4,4.4,6.3,1,2,2.945
2,Com2,197,6.3,4.5,5.4,5.4,4.4,6.4,1,1,8.559
2,Com1,199,7.3,3.5,6.3,4.5,5.4,5.4,1,1,4.142
2,Com2,203,6.6,4.5,5.5,5.6,4.5,6.6,2,2,7.505
2,Com3,209,5.5,5.4,4.4,6.5,3.4,7.5,3,2,4.305
2,Com3,211,5.4,5.5,4.3,6.6,3.3,7.6,2,2,3.039
2,Com2,212,6.4,4.7,5.5,5.6,4.5,6.6,2,3,1.807
2,Com1,215,7.6,3.5,6.7,4.4,5.6,5.5,1,3,3.231
2,Com3,216,5.5,5.6,4.5,6.6,3.5,7.6,3,1,2.639
2,Com3,218,5.1,5.4,4.0,6.5,3.1,7.4,1,1,2.574
2,Com2,219,6.4,4.4,5.4,5.4,4.5,6.3,3,1,2.847
2,Com2,220,6.5,4.5,5.4,5.6,4.3,6.7,2,2,2.606
2,Com3,223,5.3,5.6,4.2,6.7,3.4,7.5,2,1,3.085
2,Com2,227,6.2,4.3,5.1,5.4,4.0,6.5,3,1,2.447
2,Com2,228,6.5,4.6,5.6,5.5,4.7,6.4,1,2,1.97
2,Com1,229,7.4,3.4,6.3,4.5,5.4,5.4,3,2,4.415
2,Com3,230,5.3,5.4,4.4,6.3,3.4,7.3,1,2,3.905
2,Com3,232,5.7,5.8,4.6,6.9,3.6,7.9,2,3,4.623
2,Com2,233,6.4,4.7,5.5,5.6,4.5,6.6,1,2,2.766
2,Com1,235,7.5,3.5,6.5,4.5,5.4,5.6,3,1,1.824
2,Com3,236,5.6,5.5,4.7,6.4,3.6,7.5,1,1,3.711
2,Com3,238,5.5,5.6,4.5,6.6,3.5,7.6,1,1,7.151
2,Com3,239,5.4,5.5,4.4,6.5,3.4,7.5,3,1,4.047
2,Com2,240,6.6,4.4,5.5,5.5,4.6,6.4,1,1,7.009
3,Com2,1,6.5,4.5,5.4,5.6,4.3,6.7,2,1,17.575
3,Com2,2,6.6,4.4,5.6,5.4,4.7,6.3,1,3,25.282
3,Com3,3,5.3,5.6,4.2,6.7,3.4,7.5,2,3,10.803
3,Com1,4,7.6,3.5,6.5,4.6,5.6,5.5,1,3,12.164
3,Com1,5,7.5,3.6,6.6,4.5,5.5,5.6,2,3,6.819
3,Com1,6,7.7,3.4,6.5,4.6,5.6,5.5,1,3,5.924
3,Com3,10,5.4,5.4,4.5,6.3,3.3,7.5,2,1,3.889
3,Com3,14,5.3,5.8,4.2,6.9,3.4,7.7,2,1,13.312
3,Com3,15,5.5,5.4,4.4,6.5,3.4,7.5,1,1,2.565
3,Com3,17,5.6,5.4,4.7,6.3,3.5,7.5,2,1,4.02
3,Com2,21,6.6,4.4,5.5,5.5,4.4,6.6,1,2,2.562
3,Com2,24,6.3,4.5,5.4,5.4,4.4,6.4,1,1,3.492
3,Com3,26,5.6,5.5,4.7,6.4,3.5,7.6,3,3,2.414
3,Com3,28,5.5,5.6,4.5,6.6,3.5,7.6,1,1,5.808
3,Com3,32,5.4,5.4,4.4,6.4,3.3,7.5,2,3,2.738
3,Com1,34,7.6,3.2,6.6,4.2,5.6,5.2,2,2,5.742
3,Com3,35,5.7,5.5,4.7,6.5,3.8,7.4,2,1,1.889
3,Com3,36,5.6,5.2,4.5,6.3,3.5,7.3,1,1,3.06
3,Com1,38,7.7,3.4,6.6,4.5,5.6,5.5,3,3,3.649
3,Com2,41,6.5,4.6,5.6,5.5,4.7,6.4,1,2,3.057
3,Com1,42,7.3,3.5,6.3,4.5,5.4,5.4,3,1,3.136
3,Com3,43,5.4,5.4,4.4,6.4,3.5,7.3,3,1,10.606
3,Com1,45,7.7,3.5,6.6,4.6,5.7,5.5,2,1,2.0
3,Com3,47,5.5,5.6,4.6,6.5,3.6,7.5,1,1,2.207
3,Com1,48,7.6,3.5,6.4,4.7,5.5,5.6,3,3,4.657
3,Com3,51,5.4,5.5,4.5,6.4,3.3,7.6,1,2,4.973
3,Com2,52,6.4,4.6,5.4,5.6,4.3,6.7,2,2,7.6
3,Com3,53,5.5,5.5,4.5,6.5,3.4,7.6,1,1,2.016
3,Com2,54,6.4,4.4,5.4,5.4,4.4,6.4,2,2,5.373
3,Com1,55,7.6,3.5,6.7,4.4,5.6,5.5,3,1,3.391
3,Com2,59,6.5,4.6,5.6,5.5,4.7,6.4,1,1,4.767
3,Com1,61,7.4,3.3,6.4,4.3,5.3,5.4,1,3,4.3
3,Com2,63,6.5,4.5,5.4,5.6,4.5,6.5,2,2,2.574
3,Com2,65,6.4,4.3,5.3,5.4,4.4,6.3,1,1,3.888
3,Com2,67,6.6,4.5,5.6,5.5,4.6,6.5,2,2,3.857
3,Com2,68,6.5,4.4,5.4,5.5,4.4,6.5,2,1,4.398
3,Com2,70,6.8,4.1,5.7,5.2,4.8,6.1,2,1,2.4
3,Com3,72,5.6,5.4,4.7,6.3,3.6,7.4,3,3,4.095
3,Com2,73,6.6,4.9,5.7,5.8,4.6,6.9,2,1,3.746
3,Com2,76,6.5,4.6,5.5,5.6,4.5,6.6,1,3,5.6
3,Com2,77,6.2,4.3,5.1,5.4,4.0,6.5,1,3,6.834
3,Com3,78,5.4,5.6,4.3,6.7,3.4,7.6,1,2,5.167
3,Com1,79,7.3,3.6,6.3,4.6,5.4,5.5,2,2,2.941
3,Com2,80,6.6,4.6,5.5,5.7,4.6,6.6,2,2,3.712
3,Com2,81,6.5,4.5,5.5,5.5,4.5,6.5,2,2,2.515
3,Com2,84,6.6,4.4,5.5,5.5,4.6,6.4,2,2,2.93
3,Com2,86,6.3,4.5,5.4,5.4,4.5,6.3,3,2,6.211
3,Com1,92,7.5,3.4,6.3,4.6,5.4,5.5,1,1,2.639
3,Com1,94,7.4,3.7,6.2,4.9,5.3,5.8,2,1,1.472
3,Com3,98,5.7,5.8,4.6,6.9,3.6,7.9,1,3,4.671
3,Com3,100,5.4,5.6,4.3,6.7,3.4,7.6,1,1,4.434
3,Com2,102,6.3,4.6,5.4,5.5,4.5,6.4,2,1,6.574
3,Com1,103,7.8,3.1,6.8,4.1,5.7,5.2,1,3,4.817
3,Com2,106,6.6,4.2,5.6,5.2,4.5,6.3,2,2,6.115
3,Com3,111,5.6,5.2,4.5,6.3,3.6,7.2,2,1,9.039
3,Com3,113,5.5,5.7,4.6,6.6,3.5,7.7,2,3,5.15
3,Com1,117,7.7,3.1,6.5,4.3,5.6,5.2,3,1,2.881
3,Com2,118,6.7,4.4,5.6,5.5,4.5,6.6,3,3,3.536
3,Com3,119,5.5,5.6,4.5,6.6,3.5,7.6,2,3,3.935
3,Com1,120,7.3,3.5,6.4,4.4,5.4,5.4,2,2,3.247
3,Com2,122,6.6,4.5,5.5,5.6,4.5,6.6,3,2,3.927
3,Com3,123,5.6,5.5,4.7,6.4,3.6,7.5,2,1,5.679
3,Com1,125,7.4,3.5,6.5,4.4,5.5,5.4,3,3,3.678
3,Com1,126,7.4,3.5,6.5,4.4,5.4,5.5,1,1,5.667
3,Com3,127,5.1,5.4,4.0,6.5,3.1,7.4,2,2,7.104
3,Com2,128,6.6,4.5,5.6,5.5,4.5,6.6,2,2,4.175
3,Com3,129,5.4,5.5,4.4,6.5,3.4,7.5,1,1,5.487
3,Com2,132,6.4,4.7,5.5,5.6,4.5,6.6,2,2,5.713
3,Com1,135,7.6,3.5,6.6,4.5,5.6,5.5,2,2,3.805
3,Com3,137,5.7,5.2,4.8,6.1,3.7,7.2,2,1,2.417
3,Com1,138,7.5,3.6,6.4,4.7,5.5,5.6,2,3,3.886
3,Com1,140,7.6,3.3,6.5,4.4,5.5,5.4,1,2,8.447
3,Com3,143,5.4,5.4,4.5,6.3,3.4,7.4,1,2,4.176
3,Com1,147,7.2,3.7,6.2,4.7,5.3,5.6,3,3,4.784
3,Com2,149,6.6,4.4,5.6,5.4,4.7,6.3,1,2,3.199
3,Com3,152,5.4,5.5,4.4,6.5,3.4,7.5,3,2,4.59
3,Com3,155,5.5,5.5,4.6,6.4,3.4,7.6,2,1,2.543
3,Com1,156,7.6,3.3,6.5,4.4,5.6,5.3,1,3,4.002
3,Com1,159,7.4,3.6,6.4,4.6,5.4,5.6,2,3,6.961
3,Com1,161,7.6,3.5,6.4,4.7,5.5,5.6,3,3,5.422
3,Com1,162,7.4,3.8,6.6,4.6,5.5,5.7,3,3,2.734
3,Com3,163,5.4,5.5,4.3,6.6,3.3,7.6,1,2,3.935
3,Com1,165,7.5,3.3,6.4,4.4,5.4,5.4,2,3,2.927
3,Com2,168,6.5,4.3,5.6,5.2,4.5,6.3,2,3,4.271
3,Com2,171,6.2,4.9,5.3,5.8,4.2,6.9,3,2,5.918
3,Com1,173,7.5,3.5,6.6,4.4,5.6,5.4,2,3,4.465
3,Com1,175,7.5,3.4,6.3,4.6,5.4,5.5,2,3,5.776
3,Com2,176,6.5,4.4,5.6,5.3,4.7,6.2,2,2,4.957
3,Com2,178,6.4,4.7,5.5,5.6,4.5,6.6,3,3,12.559
3,Com2,179,6.4,4.4,5.4,5.4,4.5,6.3,3,2,2.865
3,Com3,182,5.5,5.6,4.5,6.6,3.5,7.6,2,1,3.991
3,Com3,186,5.6,5.5,4.6,6.5,3.5,7.6,2,1,2.494
3,Com1,189,7.0,3.5,6.2,4.3,5.1,5.4,3,2,2.576
3,Com3,190,5.5,5.4,4.4,6.5,3.4,7.5,3,1,2.767
3,Com2,191,6.6,4.6,5.7,5.5,4.7,6.5,1,2,2.848
3,Com2,193,6.4,4.5,5.4,5.5,4.3,6.6,3,2,2.815
3,Com3,194,5.6,5.3,4.7,6.2,3.6,7.3,1,1,2.689
3,Com1,199,7.5,3.5,6.6,4.4,5.5,5.5,3,3,2.511
3,Com3,201,5.5,5.5,4.4,6.6,3.5,7.5,2,2,2.847
3,Com1,202,7.4,3.4,6.3,4.5,5.4,5.4,2,2,5.087
3,Com3,206,5.6,5.5,4.5,6.6,3.6,7.5,3,1,3.106
3,Com2,207,6.3,4.6,5.4,5.5,4.4,6.5,3,2,2.72
3,Com1,210,7.5,3.5,6.5,4.5,5.4,5.6,2,3,5.265
3,Com1,211,7.6,3.4,6.6,4.4,5.6,5.4,3,3,2.865
3,Com1,214,7.6,3.5,6.5,4.6,5.5,5.6,3,3,4.272
3,Com3,216,5.5,5.6,4.5,6.6,3.5,7.6,1,2,3.567
3,Com1,218,7.5,3.4,6.4,4.5,5.4,5.5,3,3,3.583
3,Com2,219,6.5,4.4,5.5,5.4,4.4,6.5,3,1,3.181
3,Com3,220,5.3,5.4,4.4,6.3,3.4,7.3,2,1,2.369
3,Com2,223,6.2,4.7,5.3,5.6,4.2,6.7,2,2,2.014
3,Com1,226,7.4,3.6,6.6,4.4,5.5,5.5,3,2,3.502
3,Com2,228,6.3,4.6,5.4,5.5,4.3,6.6,2,2,4.895
3,Com2,230,6.5,4.4,5.5,5.4,4.4,6.5,1,2,3.806
3,Com3,231,5.4,5.5,4.3,6.6,3.4,7.5,3,2,4.014
3,Com2,232,6.4,4.7,5.5,5.6,4.6,6.5,1,1,3.616
3,Com1,233,7.6,3.4,6.5,4.5,5.5,5.5,1,2,4.176
3,Com1,236,7.8,3.7,6.6,4.9,5.7,5.8,2,3,3.071
3,Com3,238,5.6,5.5,4.5,6.6,3.5,7.6,2,1,3.138
3,Com1,239,7.5,3.5,6.5,4.5,5.4,5.6,1,2,5.806
3,Com3,240,5.4,5.6,4.5,6.5,3.4,7.6,1,1,3.569
4,Com1,5,7.5,3.4,6.3,4.6,5.4,5.5,3,3,4.803
4,Com2,6,6.5,4.3,5.6,5.2,4.5,6.3,2,2,7.17
4,Com1,7,7.5,3.4,6.4,4.5,5.4,5.5,2,3,5.923
4,Com2,8,6.5,4.4,5.6,5.3,4.7,6.2,2,2,5.427
4,Com3,14,5.6,5.5,4.6,6.5,3.5,7.6,1,1,9.348
4,Com2,19,6.5,4.4,5.5,5.4,4.4,6.5,2,2,8.243
4,Com1,22,7.6,3.5,6.4,4.7,5.5,5.6,1,3,5.459
4,Com3,26,5.6,5.2,4.5,6.3,3.5,7.3,3,1,4.703
4,Com1,27,7.4,3.6,6.4,4.6,5.4,5.6,1,3,6.048
4,Com3,28,5.7,5.2,4.8,6.1,3.7,7.2,3,1,6.512
4,Com2,30,6.4,4.7,5.5,5.6,4.5,6.6,3,2,3.939
4,Com2,31,6.4,4.7,5.5,5.6,4.6,6.5,2,2,3.296
4,Com2,32,6.3,4.5,5.4,5.4,4.5,6.3,2,2,3.101
4,Com3,38,5.6,5.4,4.7,6.3,3.5,7.5,2,1,4.851
4,Com3,39,5.4,5.6,4.3,6.7,3.4,7.6,2,1,7.421
4,Com2,41,6.6,4.5,5.6,5.5,4.6,6.5,2,2,7.361
4,Com3,45,5.3,5.6,4.2,6.7,3.4,7.5,2,1,3.072
4,Com1,47,7.6,3.3,6.5,4.4,5.6,5.3,1,3,7.903
4,Com2,48,6.6,4.6,5.7,5.5,4.7,6.5,1,2,3.215
4,Com1,49,7.4,3.7,6.2,4.9,5.3,5.8,1,3,5.04
4,Com1,51,7.6,3.2,6.6,4.2,5.6,5.2,1,3,3.662
4,Com3,54,5.5,5.5,4.5,6.5,3.4,7.6,2,1,7.887
4,Com3,55,5.6,5.5,4.5,6.6,3.5,7.6,3,1,4.56
4,Com3,58,5.5,5.5,4.6,6.4,3.4,7.6,1,1,2.367
4,Com3,62,5.4,5.5,4.3,6.6,3.4,7.5,1,1,5.685
4,Com1,64,7.5,3.6,6.6,4.5,5.5,5.6,3,3,2.942
4,Com3,67,5.4,5.4,4.4,6.4,3.5,7.3,2,1,2.545
4,Com2,71,6.6,4.6,5.5,5.7,4.6,6.6,1,2,15.758
4,Com2,72,6.2,4.9,5.3,5.8,4.2,6.9,3,2,3.491
4,Com2,76,6.5,4.5,5.4,5.6,4.5,6.5,2,2,4.847
4,Com3,81,5.5,5.6,4.5,6.6,3.5,7.6,3,1,3.632
4,Com1,82,7.7,3.4,6.5,4.6,5.6,5.5,1,3,3.599
4,Com2,86,6.3,4.6,5.4,5.5,4.4,6.5,1,2,4.417
4,Com2,87,6.4,4.4,5.4,5.4,4.5,6.3,3,2,3.342
4,Com3,90,5.5,5.6,4.5,6.6,3.5,7.6,2,1,4.269
4,Com1,91,7.6,3.4,6.5,4.5,5.5,5.5,2,3,2.992
4,Com2,93,6.5,4.6,5.5,5.6,4.5,6.6,3,2,3.663
4,Com2,94,6.4,4.6,5.4,5.6,4.3,6.7,2,2,3.569
4,Com3,95,5.4,5.5,4.3,6.6,3.3,7.6,3,1,2.962
4,Com1,96,7.6,3.5,6.6,4.5,5.6,5.5,3,3,3.645
4,Com3,97,5.5,5.4,4.4,6.5,3.4,7.5,2,1,2.591
4,Com1,100,7.6,3.3,6.5,4.4,5.5,5.4,1,1,2.271
4,Com3,101,5.6,5.2,4.5,6.3,3.6,7.2,3,1,3.791
4,Com2,102,6.4,4.7,5.5,5.6,4.5,6.6,1,2,3.519
4,Com2,103,6.7,4.4,5.6,5.5,4.5,6.6,3,2,3.552
4,Com1,104,7.3,3.5,6.4,4.4,5.4,5.4,3,3,3.393
4,Com2,105,6.5,4.6,5.6,5.5,4.7,6.4,3,2,2.991
4,Com1,107,7.5,3.3,6.4,4.4,5.4,5.4,2,3,2.895
4,Com1,108,7.5,3.5,6.5,4.5,5.4,5.6,3,3,4.111
4,Com3,111,5.4,5.4,4.4,6.4,3.3,7.5,1,1,6.064
4,Com1,113,7.4,3.3,6.4,4.3,5.3,5.4,2,3,4.255
4,Com1,115,7.5,3.5,6.6,4.4,5.6,5.4,2,3,7.121
4,Com2,116,6.2,4.3,5.1,5.4,4.0,6.5,3,2,5.566
4,Com3,117,5.4,5.4,4.5,6.3,3.4,7.4,2,1,3.217
4,Com3,119,5.3,5.8,4.2,6.9,3.4,7.7,1,1,6.403
4,Com2,122,6.3,4.5,5.4,5.4,4.4,6.4,2,2,6.199
4,Com2,124,6.5,4.6,5.6,5.5,4.7,6.4,2,2,2.433
4,Com1,126,7.4,3.5,6.5,4.4,5.4,5.5,3,3,2.207
4,Com1,129,7.6,3.5,6.7,4.4,5.6,5.5,2,3,3.951
4,Com2,130,6.3,4.6,5.4,5.5,4.3,6.6,1,1,2.897
4,Com1,131,7.7,3.5,6.6,4.6,5.7,5.5,1,3,3.391
4,Com1,132,7.3,3.6,6.3,4.6,5.4,5.5,2,3,2.863
4,Com2,133,6.4,4.5,5.4,5.5,4.3,6.6,3,2,2.801
4,Com1,134,7.8,3.7,6.6,4.9,5.7,5.8,3,3,1.665
4,Com3,135,5.4,5.6,4.3,6.7,3.4,7.6,3,1,1.998
4,Com2,136,6.6,4.4,5.5,5.5,4.6,6.4,1,2,1.873
4,Com1,139,7.6,3.5,6.5,4.6,5.6,5.5,2,3,2.848
4,Com2,140,6.4,4.3,5.3,5.4,4.4,6.3,2,2,3.039
4,Com1,141,7.5,3.4,6.3,4.6,5.4,5.5,1,3,1.728
4,Com3,142,5.6,5.5,4.7,6.4,3.5,7.6,1,1,1.166
4,Com1,143,7.2,3.7,6.2,4.7,5.3,5.6,2,3,2.327
4,Com3,144,5.6,5.3,4.7,6.2,3.6,7.3,1,1,1.999
4,Com2,145,6.6,4.9,5.7,5.8,4.6,6.9,1,2,1.775
4,Com2,147,6.2,4.7,5.3,5.6,4.2,6.7,3,2,2.367
4,Com3,152,5.6,5.5,4.5,6.6,3.6,7.5,3,1,2.208
4,Com3,155,5.4,5.6,4.5,6.5,3.4,7.6,3,1,2.896
4,Com1,156,7.4,3.5,6.5,4.4,5.5,5.4,1,3,3.613
4,Com3,158,5.3,5.4,4.4,6.3,3.4,7.3,3,1,3.038
4,Com3,159,5.5,5.4,4.4,6.5,3.4,7.5,2,1,2.639
4,Com2,160,6.6,4.5,5.6,5.5,4.5,6.6,3,2,2.689
4,Com3,161,5.4,5.4,4.5,6.3,3.3,7.5,2,1,1.316
4,Com2,163,6.6,4.4,5.6,5.4,4.7,6.3,2,2,1.586
4,Com3,164,5.5,5.7,4.6,6.6,3.5,7.7,3,1,1.806
4,Com3,169,5.7,5.5,4.7,6.5,3.8,7.4,2,1,2.224
4,Com3,172,5.5,5.6,4.6,6.5,3.6,7.5,3,1,6.226
4,Com3,174,5.4,5.5,4.5,6.4,3.3,7.6,1,1,1.471
4,Com2,176,6.3,4.6,5.4,5.5,4.5,6.4,1,2,1.582
4,Com1,179,7.6,3.5,6.5,4.6,5.5,5.6,1,3,1.661
4,Com2,180,6.6,4.4,5.5,5.5,4.4,6.6,3,2,3.618
4,Com3,181,5.4,5.5,4.4,6.5,3.4,7.5,3,1,2.289
4,Com2,187,6.8,4.1,5.7,5.2,4.8,6.1,3,2,2.369
4,Com1,188,7.8,3.1,6.8,4.1,5.7,5.2,2,3,1.87
4,Com2,190,6.4,4.4,5.4,5.4,4.4,6.4,2,2,2.755
4,Com2,191,6.5,4.5,5.5,5.5,4.5,6.5,3,2,3.057
4,Com2,193,6.6,4.4,5.6,5.4,4.7,6.3,3,2,2.657
4,Com3,195,5.1,5.4,4.0,6.5,3.1,7.4,3,1,1.742
4,Com3,197,5.5,5.6,4.5,6.6,3.5,7.6,3,1,1.663
4,Com3,199,5.6,5.5,4.7,6.4,3.6,7.5,3,1,1.662
4,Com1,200,7.3,3.5,6.3,4.5,5.4,5.4,3,3,1.183
4,Com1,203,7.4,3.4,6.3,4.5,5.4,5.4,3,3,4.271
4,Com3,206,5.4,5.5,4.4,6.5,3.4,7.5,2,1,2.225
4,Com2,207,6.6,4.5,5.5,5.6,4.5,6.6,1,2,2.481
4,Com1,210,7.7,3.1,6.5,4.3,5.6,5.2,2,3,1.693
4,Com1,211,7.5,3.6,6.4,4.7,5.5,5.6,3,3,2.303
4,Com3,212,5.5,5.5,4.4,6.6,3.5,7.5,3,1,1.792
4,Com2,213,6.6,4.2,5.6,5.2,4.5,6.3,1,2,3.41
4,Com1,214,7.5,3.5,6.5,4.5,5.4,5.6,1,3,2.192
4,Com2,215,6.5,4.5,5.4,5.6,4.3,6.7,3,2,2.399
4,Com1,218,7.0,3.5,6.2,4.3,5.1,5.4,1,3,2.431
4,Com1,220,7.6,3.5,6.4,4.7,5.5,5.6,2,3,2.003
4,Com2,221,6.5,4.4,5.4,5.5,4.4,6.5,3,2,2.207
4,Com1,222,7.7,3.4,6.6,4.5,5.6,5.5,3,3,1.202
4,Com3,223,5.5,5.6,4.5,6.6,3.5,7.6,1,1,2.536
4,Com3,226,5.7,5.8,4.6,6.9,3.6,7.9,1,1,6.097
4,Com1,228,7.4,3.6,6.6,4.4,5.5,5.5,3,3,3.617
4,Com3,229,5.6,5.4,4.7,6.3,3.6,7.4,1,1,2.608
4,Com1,231,7.6,3.4,6.6,4.4,5.6,5.4,1,3,4.11
4,Com2,232,6.5,4.4,5.5,5.4,4.4,6.5,2,2,2.016
4,Com1,237,7.4,3.8,6.6,4.6,5.5,5.7,1,3,1.937
4,Com1,239,7.5,3.5,6.6,4.4,5.5,5.5,3,3,3.951
5,Com2,1,6.5,4.6,5.6,5.5,4.7,6.4,3,1,33.141
5,Com1,2,7.0,3.5,6.2,4.3,5.1,5.4,3,1,22.565
5,Com1,3,7.5,3.6,6.4,4.7,5.5,5.6,3,1,6.21
5,Com2,4,6.5,4.4,5.5,5.4,4.4,6.5,1,1,7.714
5,Com2,6,6.3,4.5,5.4,5.4,4.4,6.4,1,1,5.89
5,Com2,8,6.4,4.7,5.5,5.6,4.5,6.6,2,3,8.818
5,Com1,10,7.5,3.5,6.5,4.5,5.4,5.6,3,1,19.524
5,Com3,13,5.4,5.6,4.3,6.7,3.4,7.6,3,2,22.659
5,Com3,14,5.6,5.3,4.7,6.2,3.6,7.3,2,1,16.004
5,Com3,15,5.5,5.6,4.5,6.6,3.5,7.6,2,2,12.419
5,Com2,17,6.5,4.3,5.6,5.2,4.5,6.3,3,1,6.532
5,Com1,20,7.6,3.5,6.4,4.7,5.5,5.6,1,2,2.88
5,Com3,21,5.6,5.5,4.5,6.6,3.6,7.5,2,3,10.9
5,Com3,23,5.5,5.6,4.5,6.6,3.5,7.6,1,3,20.562
5,Com3,24,5.1,5.4,4.0,6.5,3.1,7.4,1,3,14.05
5,Com3,25,5.5,5.7,4.6,6.6,3.5,7.7,3,3,2.798
5,Com2,26,6.6,4.5,5.5,5.6,4.5,6.6,2,3,4.673
5,Com3,27,5.6,5.5,4.6,6.5,3.5,7.6,2,3,3.363
5,Com2,31,6.3,4.6,5.4,5.5,4.4,6.5,2,1,6.238
5,Com3,32,5.4,5.5,4.3,6.6,3.4,7.5,3,2,9.409
5,Com3,35,5.5,5.5,4.5,6.5,3.4,7.6,3,2,11.538
5,Com3,37,5.6,5.4,4.7,6.3,3.6,7.4,1,3,3.296
5,Com3,45,5.3,5.6,4.2,6.7,3.4,7.5,3,1,9.424
5,Com1,46,7.5,3.4,6.3,4.6,5.4,5.5,2,2,5.602
5,Com2,52,6.3,4.5,5.4,5.4,4.5,6.3,3,2,24.11
5,Com2,56,6.6,4.2,5.6,5.2,4.5,6.3,3,2,6.383
5,Com1,57,7.6,3.5,6.5,4.6,5.5,5.6,2,3,5.152
5,Com3,58,5.4,5.5,4.4,6.5,3.4,7.5,2,2,19.984
5,Com3,59,5.5,5.6,4.5,6.6,3.5,7.6,1,1,12.142
5,Com1,61,7.4,3.7,6.2,4.9,5.3,5.8,1,3,35.76
5,Com1,63,7.5,3.5,6.6,4.4,5.6,5.4,2,3,3.294
5,Com2,64,6.4,4.7,5.5,5.6,4.5,6.6,3,3,2.162
5,Com1,67,7.6,3.4,6.6,4.4,5.6,5.4,2,3,6.496
5,Com2,68,6.3,4.6,5.4,5.5,4.5,6.4,2,3,7.202
5,Com3,70,5.5,5.6,4.5,6.6,3.5,7.6,1,1,14.302
5,Com1,71,7.8,3.7,6.6,4.9,5.7,5.8,1,2,2.448
5,Com3,72,5.7,5.5,4.7,6.5,3.8,7.4,1,3,2.08
5,Com1,73,7.4,3.6,6.6,4.4,5.5,5.5,1,3,4.527
5,Com1,74,7.3,3.6,6.3,4.6,5.4,5.5,1,1,21.326
5,Com3,75,5.7,5.8,4.6,6.9,3.6,7.9,3,1,2.817
5,Com2,77,6.5,4.5,5.5,5.5,4.5,6.5,2,2,5.246
5,Com3,79,5.5,5.5,4.4,6.6,3.5,7.5,3,2,4.142
5,Com3,80,5.7,5.2,4.8,6.1,3.7,7.2,2,2,5.071
5,Com2,85,6.6,4.9,5.7,5.8,4.6,6.9,1,3,9.697
5,Com3,87,5.5,5.6,4.6,6.5,3.6,7.5,3,3,20.431
5,Com3,90,5.4,5.4,4.5,6.3,3.3,7.5,2,1,3.247
5,Com3,91,5.3,5.4,4.4,6.3,3.4,7.3,2,2,7.488
5,Com1,94,7.5,3.5,6.6,4.4,5.5,5.5,3,2,10.238
5,Com1,95,7.2,3.7,6.2,4.7,5.3,5.6,1,3,7.075
5,Com3,96,5.4,5.4,4.5,6.3,3.4,7.4,1,3,11.359
5,Com3,99,5.6,5.2,4.5,6.3,3.6,7.2,1,3,11.359
5,Com3,105,5.5,5.4,4.4,6.5,3.4,7.5,2,3,8.482
5,Com1,108,7.8,3.1,6.8,4.1,5.7,5.2,2,2,9.472
5,Com2,109,6.3,4.6,5.4,5.5,4.3,6.6,1,2,8.0
5,Com3,110,5.4,5.6,4.5,6.5,3.4,7.6,1,2,21.64
5,Com2,111,6.4,4.6,5.4,5.6,4.3,6.7,3,3,2.448
5,Com2,112,6.6,4.6,5.5,5.7,4.6,6.6,2,3,3.586
5,Com1,113,7.5,3.6,6.6,4.5,5.5,5.6,1,3,4.542
5,Com2,114,6.6,4.4,5.6,5.4,4.7,6.3,3,1,5.151
5,Com1,115,7.3,3.5,6.3,4.5,5.4,5.4,1,3,2.049
5,Com1,116,7.5,3.4,6.4,4.5,5.4,5.5,3,3,5.328
5,Com1,123,7.6,3.5,6.7,4.4,5.6,5.5,3,2,3.649
5,Com2,124,6.5,4.6,5.5,5.6,4.5,6.6,1,2,2.063
5,Com2,125,6.5,4.4,5.4,5.5,4.4,6.5,2,2,7.534
5,Com2,131,6.2,4.3,5.1,5.4,4.0,6.5,2,2,7.359
5,Com2,134,6.6,4.6,5.7,5.5,4.7,6.5,3,1,3.537
5,Com1,135,7.7,3.4,6.5,4.6,5.6,5.5,1,3,3.007
5,Com2,137,6.4,4.5,5.4,5.5,4.3,6.6,3,2,1.52
5,Com1,138,7.4,3.6,6.4,4.6,5.4,5.6,2,3,8.095
5,Com1,139,7.4,3.4,6.3,4.5,5.4,5.4,2,3,5.038
5,Com3,141,5.4,5.4,4.4,6.4,3.3,7.5,1,3,4.414
5,Com2,142,6.5,4.5,5.4,5.6,4.3,6.7,1,3,5.633
5,Com1,143,7.7,3.1,6.5,4.3,5.6,5.2,3,1,3.072
5,Com3,144,5.6,5.4,4.7,6.3,3.5,7.5,2,3,6.289
5,Com2,145,6.6,4.4,5.5,5.5,4.6,6.4,2,3,4.622
5,Com2,148,6.8,4.1,5.7,5.2,4.8,6.1,2,2,8.861
5,Com2,149,6.4,4.3,5.3,5.4,4.4,6.3,3,2,14.368
5,Com1,150,7.4,3.8,6.6,4.6,5.5,5.7,1,1,25.633
5,Com2,152,6.2,4.7,5.3,5.6,4.2,6.7,2,2,11.25
5,Com1,153,7.6,3.5,6.5,4.6,5.6,5.5,3,2,7.568
5,Com3,154,5.4,5.5,4.3,6.6,3.3,7.6,2,2,38.194
5,Com3,157,5.4,5.6,4.3,6.7,3.4,7.6,1,2,24.769
5,Com1,158,7.3,3.5,6.4,4.4,5.4,5.4,3,2,7.983
5,Com2,163,6.6,4.5,5.6,5.5,4.5,6.6,2,2,4.705
5,Com1,164,7.6,3.5,6.6,4.5,5.6,5.5,2,3,1.485
5,Com1,166,7.4,3.3,6.4,4.3,5.3,5.4,1,3,2.606
5,Com2,168,6.7,4.4,5.6,5.5,4.5,6.6,1,2,2.912
5,Com2,170,6.5,4.4,5.5,5.4,4.4,6.5,3,2,3.102
5,Com1,172,7.6,3.3,6.5,4.4,5.6,5.3,3,2,2.255
5,Com3,175,5.4,5.5,4.4,6.5,3.4,7.5,1,3,2.48
5,Com2,179,6.6,4.5,5.6,5.5,4.6,6.5,1,2,1.998
5,Com3,180,5.5,5.4,4.4,6.5,3.4,7.5,3,2,2.978
5,Com1,182,7.6,3.4,6.5,4.5,5.5,5.5,3,1,16.358
5,Com3,185,5.4,5.4,4.4,6.4,3.5,7.3,2,3,50.625
5,Com2,190,6.4,4.7,5.5,5.6,4.6,6.5,3,2,11.006
5,Com3,192,5.6,5.5,4.7,6.4,3.6,7.5,3,2,17.981
5,Com1,193,7.4,3.5,6.5,4.4,5.5,5.4,3,2,7.844
5,Com2,194,6.2,4.9,5.3,5.8,4.2,6.9,2,2,38.43
5,Com2,195,6.5,4.6,5.6,5.5,4.7,6.4,1,2,17.297
5,Com1,199,7.7,3.5,6.6,4.6,5.7,5.5,3,2,7.119
5,Com2,200,6.4,4.4,5.4,5.4,4.5,6.3,1,1,6.492
5,Com1,201,7.7,3.4,6.6,4.5,5.6,5.5,3,2,5.024
5,Com1,203,7.5,3.3,6.4,4.4,5.4,5.4,2,3,5.455
5,Com3,204,5.6,5.5,4.7,6.4,3.5,7.6,3,2,11.951
5,Com1,205,7.6,3.5,6.4,4.7,5.5,5.6,2,2,5.618
5,Com3,210,5.3,5.8,4.2,6.9,3.4,7.7,1,1,5.974
5,Com1,212,7.4,3.5,6.5,4.4,5.4,5.5,2,3,3.664
5,Com3,213,5.4,5.5,4.5,6.4,3.3,7.6,3,2,6.839
5,Com3,217,5.6,5.2,4.5,6.3,3.5,7.3,2,2,6.006
5,Com1,219,7.6,3.3,6.5,4.4,5.5,5.4,3,3,3.073
5,Com1,221,7.5,3.4,6.3,4.6,5.4,5.5,2,3,3.262
5,Com3,222,5.5,5.5,4.6,6.4,3.4,7.6,1,2,10.943
5,Com2,223,6.6,4.4,5.6,5.4,4.7,6.3,3,3,3.79
5,Com3,225,5.6,5.5,4.5,6.6,3.5,7.6,1,2,18.256
5,Com2,230,6.6,4.4,5.5,5.5,4.4,6.6,1,1,5.406
5,Com2,234,6.5,4.4,5.6,5.3,4.7,6.2,1,1,5.889
5,Com2,236,6.4,4.4,5.4,5.4,4.4,6.4,3,2,8.383
5,Com1,237,7.5,3.5,6.5,4.5,5.4,5.6,1,2,3.454
5,Com1,239,7.6,3.2,6.6,4.2,5.6,5.2,1,2,5.727
5,Com2,240,6.5,4.5,5.4,5.6,4.5,6.5,2,2,4.366
6,Com2,1,6.5,4.4,5.5,5.4,4.4,6.5,2,2,28.983
6,Com2,3,6.6,4.9,5.7,5.8,4.6,6.9,3,2,7.891
6,Com2,4,6.5,4.6,5.5,5.6,4.5,6.6,2,2,10.484
6,Com1,7,7.6,3.5,6.4,4.7,5.5,5.6,1,3,5.763
6,Com2,8,6.3,4.6,5.4,5.5,4.4,6.5,1,2,2.944
6,Com3,9,5.7,5.2,4.8,6.1,3.7,7.2,1,1,8.772
6,Com3,12,5.6,5.5,4.5,6.6,3.5,7.6,1,1,4.469
6,Com1,16,7.5,3.5,6.6,4.4,5.5,5.5,2,3,2.259
6,Com1,17,7.6,3.5,6.5,4.6,5.6,5.5,2,3,3.748
6,Com2,18,6.4,4.6,5.4,5.6,4.3,6.7,2,2,3.282
6,Com3,20,5.6,5.4,4.7,6.3,3.6,7.4,3,1,6.484
6,Com3,23,5.5,5.7,4.6,6.6,3.5,7.7,1,1,3.107
6,Com3,24,5.5,5.4,4.4,6.5,3.4,7.5,1,1,2.277
6,Com2,25,6.4,4.7,5.5,5.6,4.5,6.6,3,2,4.286
6,Com3,30,5.6,5.5,4.7,6.4,3.6,7.5,1,1,2.306
6,Com1,31,7.6,3.3,6.5,4.4,5.5,5.4,1,3,2.033
6,Com3,32,5.4,5.4,4.5,6.3,3.3,7.5,3,1,3.745
6,Com1,33,7.7,3.4,6.5,4.6,5.6,5.5,3,3,2.689
6,Com1,39,7.6,3.5,6.5,4.6,5.5,5.6,1,3,4.782
6,Com2,41,6.4,4.4,5.4,5.4,4.5,6.3,1,2,4.622
6,Com3,45,5.4,5.5,4.4,6.5,3.4,7.5,3,3,4.719
6,Com2,50,6.5,4.4,5.4,5.5,4.4,6.5,2,2,18.128
6,Com1,51,7.4,3.8,6.6,4.6,5.5,5.7,3,3,5.661
6,Com2,52,6.8,4.1,5.7,5.2,4.8,6.1,1,2,5.665
6,Com2,53,6.4,4.3,5.3,5.4,4.4,6.3,1,2,19.937
6,Com3,59,5.5,5.6,4.5,6.6,3.5,7.6,1,1,5.775
6,Com3,61,5.4,5.6,4.3,6.7,3.4,7.6,3,1,10.942
6,Com1,64,7.5,3.4,6.3,4.6,5.4,5.5,1,3,3.362
6,Com1,65,7.0,3.5,6.2,4.3,5.1,5.4,3,3,7.439
6,Com1,66,7.2,3.7,6.2,4.7,5.3,5.6,2,3,3.537
6,Com2,68,6.5,4.5,5.5,5.5,4.5,6.5,3,2,3.6
6,Com3,70,5.4,5.5,4.5,6.4,3.3,7.6,2,1,2.558
6,Com3,72,5.5,5.5,4.4,6.6,3.5,7.5,1,1,3.229
6,Com1,73,7.4,3.5,6.5,4.4,5.4,5.5,3,3,3.235
6,Com1,76,7.6,3.5,6.7,4.4,5.6,5.5,1,3,6.785
6,Com3,77,5.5,5.4,4.4,6.5,3.4,7.5,3,1,4.496
6,Com3,79,5.7,5.5,4.7,6.5,3.8,7.4,2,1,3.87
6,Com3,80,5.3,5.6,4.2,6.7,3.4,7.5,2,1,2.096
6,Com2,81,6.5,4.6,5.6,5.5,4.7,6.4,2,2,4.129
6,Com3,84,5.6,5.2,4.5,6.3,3.6,7.2,3,1,4.991
6,Com3,90,5.4,5.6,4.3,6.7,3.4,7.6,3,1,2.366
6,Com3,91,5.5,5.5,4.6,6.4,3.4,7.6,2,1,1.537
6,Com2,92,6.2,4.7,5.3,5.6,4.2,6.7,2,2,6.03
6,Com3,94,5.3,5.4,4.4,6.3,3.4,7.3,3,1,3.025
6,Com2,97,6.6,4.4,5.6,5.4,4.7,6.3,2,2,16.959
6,Com1,98,7.4,3.4,6.3,4.5,5.4,5.4,1,3,2.482
6,Com3,101,5.5,5.6,4.5,6.6,3.5,7.6,3,1,7.761
6,Com1,102,7.3,3.5,6.3,4.5,5.4,5.4,2,3,5.022
6,Com3,103,5.4,5.6,4.5,6.5,3.4,7.6,1,1,2.848
6,Com3,104,5.4,5.5,4.4,6.5,3.4,7.5,3,1,3.858
6,Com2,106,6.5,4.5,5.4,5.6,4.5,6.5,1,2,4.125
6,Com2,107,6.4,4.4,5.4,5.4,4.4,6.4,2,2,5.056
6,Com3,111,5.6,5.5,4.6,6.5,3.5,7.6,1,1,3.297
6,Com2,113,6.5,4.3,5.6,5.2,4.5,6.3,2,2,6.403
6,Com3,115,5.5,5.6,4.5,6.6,3.5,7.6,3,1,4.287
6,Com2,117,6.4,4.7,5.5,5.6,4.6,6.5,3,2,6.114
6,Com2,119,6.3,4.6,5.4,5.5,4.3,6.6,2,2,2.112
6,Com2,120,6.5,4.4,5.6,5.3,4.7,6.2,3,2,10.031
6,Com2,123,6.6,4.6,5.5,5.7,4.6,6.6,1,2,5.312
6,Com1,124,7.3,3.5,6.4,4.4,5.4,5.4,2,3,3.437
6,Com1,131,7.4,3.6,6.4,4.6,5.4,5.6,3,3,3.647
6,Com2,132,6.6,4.4,5.6,5.4,4.7,6.3,3,2,2.226
6,Com1,136,7.5,3.3,6.4,4.4,5.4,5.4,2,3,2.736
6,Com2,139,6.2,4.9,5.3,5.8,4.2,6.9,3,2,5.874
6,Com3,144,5.6,5.3,4.7,6.2,3.6,7.3,3,1,6.704
6,Com1,145,7.5,3.5,6.6,4.4,5.6,5.4,3,3,5.471
6,Com2,146,6.3,4.6,5.4,5.5,4.5,6.4,2,2,2.064
6,Com2,147,6.3,4.5,5.4,5.4,4.4,6.4,2,2,1.968
6,Com1,150,7.5,3.5,6.5,4.5,5.4,5.6,3,3,8.958
6,Com1,151,7.4,3.7,6.2,4.9,5.3,5.8,1,3,8.031
6,Com3,152,5.5,5.6,4.6,6.5,3.6,7.5,1,1,1.84
6,Com1,154,7.6,3.3,6.5,4.4,5.6,5.3,1,3,2.591
6,Com1,156,7.4,3.3,6.4,4.3,5.3,5.4,1,3,2.814
6,Com1,159,7.4,3.6,6.6,4.4,5.5,5.5,1,3,1.502
6,Com1,161,7.6,3.4,6.6,4.4,5.6,5.4,2,3,4.382
6,Com1,162,7.6,3.4,6.5,4.5,5.5,5.5,3,3,2.9
6,Com2,163,6.7,4.4,5.6,5.5,4.5,6.6,3,2,2.847
6,Com1,164,7.3,3.6,6.3,4.6,5.4,5.5,2,3,1.934
6,Com1,165,7.6,3.2,6.6,4.2,5.6,5.2,2,3,2.687
6,Com3,167,5.6,5.4,4.7,6.3,3.5,7.5,3,1,3.905
6,Com2,168,6.6,4.6,5.7,5.5,4.7,6.5,3,2,2.578
6,Com2,169,6.4,4.5,5.4,5.5,4.3,6.6,1,2,4.652
6,Com3,171,5.6,5.2,4.5,6.3,3.5,7.3,2,1,2.512
6,Com2,172,6.4,4.7,5.5,5.6,4.5,6.6,3,2,2.4
6,Com2,173,6.2,4.3,5.1,5.4,4.0,6.5,1,2,5.376
6,Com2,174,6.6,4.2,5.6,5.2,4.5,6.3,2,2,3.181
6,Com3,175,5.4,5.4,4.5,6.3,3.4,7.4,2,1,1.023
6,Com1,177,7.7,3.4,6.6,4.5,5.6,5.5,1,3,2.416
6,Com2,181,6.6,4.5,5.6,5.5,4.5,6.6,1,2,2.415
6,Com3,184,5.3,5.8,4.2,6.9,3.4,7.7,1,1,4.638
6,Com2,185,6.5,4.6,5.6,5.5,4.7,6.4,2,2,2.799
6,Com3,187,5.4,5.4,4.4,6.4,3.5,7.3,3,1,1.855
6,Com1,189,7.5,3.6,6.6,4.5,5.5,5.6,2,3,3.025
6,Com3,190,5.4,5.4,4.4,6.4,3.3,7.5,2,1,1.823
6,Com3,191,5.4,5.5,4.3,6.6,3.4,7.5,2,1,1.808
6,Com2,192,6.6,4.4,5.5,5.5,4.6,6.4,2,2,1.663
6,Com2,194,6.3,4.5,5.4,5.4,4.5,6.3,2,2,1.95
6,Com2,196,6.6,4.5,5.5,5.6,4.5,6.6,3,2,1.888
6,Com3,197,5.4,5.5,4.3,6.6,3.3,7.6,2,1,3.009
6,Com3,198,5.6,5.5,4.5,6.6,3.6,7.5,1,1,2.467
6,Com1,203,7.6,3.5,6.6,4.5,5.6,5.5,2,3,3.279
6,Com1,205,7.8,3.7,6.6,4.9,5.7,5.8,3,3,2.913
6,Com1,209,7.4,3.5,6.5,4.4,5.5,5.4,1,3,2.173
6,Com3,210,5.5,5.6,4.5,6.6,3.5,7.6,1,1,2.049
6,Com2,211,6.5,4.5,5.4,5.6,4.3,6.7,2,2,1.807
6,Com1,212,7.5,3.6,6.4,4.7,5.5,5.6,2,3,1.168
6,Com1,213,7.8,3.1,6.8,4.1,5.7,5.2,2,3,3.656
6,Com2,214,6.6,4.5,5.6,5.5,4.6,6.5,3,2,1.81
6,Com2,216,6.6,4.4,5.5,5.5,4.4,6.6,3,2,2.065
6,Com1,218,7.5,3.4,6.4,4.5,5.4,5.5,3,3,1.856
6,Com3,219,5.7,5.8,4.6,6.9,3.6,7.9,2,1,2.036
6,Com1,220,7.6,3.5,6.4,4.7,5.5,5.6,3,3,1.598
6,Com3,223,5.1,5.4,4.0,6.5,3.1,7.4,1,1,4.511
6,Com1,225,7.7,3.5,6.6,4.6,5.7,5.5,3,3,3.585
6,Com1,228,7.5,3.5,6.5,4.5,5.4,5.6,2,3,8.625
6,Com1,229,7.7,3.1,6.5,4.3,5.6,5.2,1,1,3.584
6,Com1,234,7.5,3.4,6.3,4.6,5.4,5.5,2,3,1.601
6,Com2,236,6.5,4.4,5.5,5.4,4.4,6.5,1,2,3.583
6,Com3,238,5.6,5.5,4.7,6.4,3.5,7.6,1,1,2.769
6,Com3,239,5.5,5.5,4.5,6.5,3.4,7.6,3,1,2.095
7,Com2,7,6.4,4.4,5.4,5.4,4.5,6.3,2,2,11.86
7,Com1,8,7.4,3.5,6.5,4.4,5.5,5.4,3,1,7.139
7,Com1,11,7.4,3.3,6.4,4.3,5.3,5.4,3,1,8.372
7,Com2,13,6.6,4.6,5.7,5.5,4.7,6.5,3,1,5.074
7,Com1,14,7.7,3.4,6.5,4.6,5.6,5.5,3,1,4.386
7,Com2,15,6.5,4.5,5.5,5.5,4.5,6.5,3,2,5.62
7,Com3,16,5.4,5.4,4.4,6.4,3.5,7.3,1,1,7.732
7,Com3,17,5.6,5.4,4.7,6.3,3.6,7.4,2,1,3.97
7,Com2,19,6.3,4.5,5.4,5.4,4.4,6.4,3,2,3.97
7,Com1,20,7.4,3.6,6.4,4.6,5.4,5.6,3,3,3.492
7,Com2,24,6.6,4.6,5.5,5.7,4.6,6.6,2,2,5.461
7,Com1,25,7.6,3.5,6.6,4.5,5.6,5.5,3,3,3.729
7,Com2,28,6.5,4.6,5.6,5.5,4.7,6.4,3,2,3.599
7,Com1,30,7.4,3.4,6.3,4.5,5.4,5.4,3,3,5.39
7,Com1,32,7.3,3.5,6.3,4.5,5.4,5.4,1,3,4.721
7,Com3,33,5.6,5.2,4.5,6.3,3.6,7.2,1,1,4.482
7,Com1,34,7.6,3.5,6.4,4.7,5.5,5.6,1,3,5.074
7,Com1,35,7.0,3.5,6.2,4.3,5.1,5.4,3,3,4.29
7,Com2,40,6.6,4.4,5.6,5.4,4.7,6.3,1,2,5.601
7,Com2,41,6.6,4.5,5.6,5.5,4.5,6.6,2,2,10.401
7,Com1,42,7.8,3.1,6.8,4.1,5.7,5.2,2,3,6.08
7,Com1,43,7.6,3.3,6.5,4.4,5.5,5.4,3,3,4.097
7,Com3,44,5.4,5.6,4.3,6.7,3.4,7.6,1,1,4.993
7,Com2,45,6.7,4.4,5.6,5.5,4.5,6.6,2,2,4.561
7,Com2,51,6.4,4.6,5.4,5.6,4.3,6.7,3,2,3.795
7,Com2,53,6.6,4.4,5.6,5.4,4.7,6.3,1,2,3.825
7,Com1,54,7.4,3.7,6.2,4.9,5.3,5.8,2,3,3.84
7,Com1,58,7.7,3.1,6.5,4.3,5.6,5.2,2,3,5.007
7,Com3,63,5.5,5.6,4.5,6.6,3.5,7.6,2,1,7.156
7,Com3,64,5.5,5.7,4.6,6.6,3.5,7.7,1,1,4.016
7,Com3,65,5.4,5.4,4.5,6.3,3.3,7.5,1,1,2.399
7,Com2,71,6.5,4.5,5.4,5.6,4.5,6.5,2,2,3.616
7,Com1,74,7.5,3.3,6.4,4.4,5.4,5.4,2,3,7.649
7,Com3,76,5.7,5.5,4.7,6.5,3.8,7.4,1,1,3.009
7,Com2,80,6.8,4.1,5.7,5.2,4.8,6.1,1,2,4.498
7,Com3,84,5.5,5.4,4.4,6.5,3.4,7.5,1,1,3.52
7,Com2,85,6.3,4.6,5.4,5.5,4.5,6.4,3,2,7.44
7,Com3,86,5.6,5.4,4.7,6.3,3.5,7.5,1,1,3.486
7,Com3,88,5.5,5.5,4.4,6.6,3.5,7.5,3,1,7.793
7,Com3,91,5.6,5.2,4.5,6.3,3.5,7.3,2,1,3.535
7,Com3,92,5.5,5.6,4.6,6.5,3.6,7.5,3,1,6.994
7,Com2,96,6.6,4.4,5.5,5.5,4.4,6.6,3,2,3.646
7,Com2,99,6.2,4.7,5.3,5.6,4.2,6.7,1,2,5.133
7,Com1,103,7.5,3.4,6.3,4.6,5.4,5.5,3,3,11.423
7,Com2,105,6.5,4.4,5.4,5.5,4.4,6.5,2,2,4.674
7,Com1,107,7.6,3.2,6.6,4.2,5.6,5.2,1,3,4.609
7,Com3,108,5.4,5.4,4.4,6.4,3.3,7.5,2,1,4.48
7,Com3,109,5.5,5.6,4.5,6.6,3.5,7.6,2,1,2.595
7,Com3,110,5.6,5.5,4.5,6.6,3.6,7.5,1,1,5.313
7,Com2,111,6.5,4.5,5.4,5.6,4.3,6.7,3,2,2.804
7,Com1,113,7.6,3.3,6.5,4.4,5.6,5.3,1,3,2.788
7,Com1,114,7.6,3.5,6.4,4.7,5.5,5.6,1,3,5.153
7,Com1,117,7.5,3.5,6.6,4.4,5.5,5.5,2,3,4.016
7,Com3,119,5.6,5.5,4.6,6.5,3.5,7.6,2,1,2.959
7,Com2,121,6.3,4.6,5.4,5.5,4.3,6.6,3,2,7.123
7,Com3,123,5.7,5.8,4.6,6.9,3.6,7.9,1,1,3.746
7,Com3,124,5.1,5.4,4.0,6.5,3.1,7.4,2,1,1.983
7,Com3,125,5.4,5.4,4.5,6.3,3.4,7.4,3,1,2.575
7,Com1,126,7.5,3.5,6.5,4.5,5.4,5.6,2,3,2.737
7,Com2,127,6.6,4.4,5.5,5.5,4.6,6.4,3,2,2.256
7,Com3,131,5.4,5.5,4.3,6.6,3.3,7.6,1,1,3.969
7,Com2,134,6.5,4.6,5.5,5.6,4.5,6.6,3,2,4.417
7,Com3,137,5.5,5.5,4.6,6.4,3.4,7.6,2,1,2.062
7,Com1,138,7.6,3.5,6.5,4.6,5.6,5.5,3,3,5.631
7,Com3,140,5.3,5.6,4.2,6.7,3.4,7.5,2,1,13.25
7,Com2,141,6.3,4.5,5.4,5.4,4.5,6.3,1,2,2.225
7,Com3,144,5.3,5.4,4.4,6.3,3.4,7.3,2,1,5.31
7,Com1,146,7.5,3.6,6.6,4.5,5.5,5.6,1,3,2.289
7,Com1,150,7.7,3.5,6.6,4.6,5.7,5.5,3,3,3.039
7,Com2,151,6.3,4.6,5.4,5.5,4.4,6.5,3,2,2.143
7,Com2,153,6.6,4.2,5.6,5.2,4.5,6.3,1,2,1.985
7,Com1,159,7.4,3.8,6.6,4.6,5.5,5.7,2,3,2.271
7,Com3,161,5.5,5.4,4.4,6.5,3.4,7.5,2,1,2.497
7,Com3,162,5.4,5.5,4.4,6.5,3.4,7.5,3,1,2.849
7,Com3,163,5.6,5.5,4.5,6.6,3.5,7.6,2,1,2.305
7,Com1,165,7.7,3.4,6.6,4.5,5.6,5.5,2,3,2.608
7,Com3,166,5.4,5.5,4.4,6.5,3.4,7.5,2,1,1.905
7,Com1,169,7.4,3.5,6.5,4.4,5.4,5.5,3,3,2.752
7,Com1,172,7.8,3.7,6.6,4.9,5.7,5.8,1,3,2.115
7,Com3,175,5.6,5.5,4.7,6.4,3.6,7.5,1,1,4.61
7,Com2,179,6.4,4.7,5.5,5.6,4.5,6.6,1,2,2.049
7,Com2,182,6.6,4.5,5.5,5.6,4.5,6.6,3,2,3.816
7,Com1,183,7.2,3.7,6.2,4.7,5.3,5.6,3,3,2.817
7,Com3,186,5.7,5.2,4.8,6.1,3.7,7.2,2,1,2.833
7,Com2,187,6.4,4.5,5.4,5.5,4.3,6.6,3,2,2.161
7,Com2,188,6.2,4.9,5.3,5.8,4.2,6.9,2,2,2.304
7,Com3,191,5.5,5.6,4.5,6.6,3.5,7.6,1,1,2.369
7,Com3,192,5.4,5.6,4.5,6.5,3.4,7.6,2,1,2.319
7,Com3,193,5.6,5.5,4.7,6.4,3.5,7.6,2,1,8.082
7,Com1,194,7.3,3.5,6.4,4.4,5.4,5.4,3,3,2.352
7,Com2,195,6.2,4.3,5.1,5.4,4.0,6.5,3,2,4.609
7,Com2,196,6.5,4.6,5.6,5.5,4.7,6.4,3,2,1.331
7,Com2,197,6.4,4.3,5.3,5.4,4.4,6.3,2,2,3.766
7,Com2,199,6.4,4.7,5.5,5.6,4.5,6.6,2,2,6.4
7,Com3,200,5.5,5.5,4.5,6.5,3.4,7.6,3,1,2.049
7,Com1,204,7.5,3.4,6.4,4.5,5.4,5.5,1,3,2.147
7,Com2,205,6.5,4.3,5.6,5.2,4.5,6.3,2,2,3.282
7,Com1,206,7.6,3.5,6.5,4.6,5.5,5.6,3,3,2.705
7,Com1,207,7.6,3.5,6.7,4.4,5.6,5.5,1,3,3.935
7,Com1,209,7.6,3.4,6.6,4.4,5.6,5.4,1,3,2.033
7,Com3,211,5.5,5.6,4.5,6.6,3.5,7.6,2,1,2.32
7,Com1,213,7.5,3.6,6.4,4.7,5.5,5.6,1,3,2.818
7,Com3,215,5.4,5.5,4.3,6.6,3.4,7.5,3,1,4.05
7,Com2,216,6.4,4.4,5.4,5.4,4.4,6.4,2,2,2.142
7,Com2,217,6.6,4.5,5.6,5.5,4.6,6.5,2,2,2.113
7,Com2,218,6.4,4.7,5.5,5.6,4.6,6.5,2,2,4.275
7,Com3,219,5.4,5.6,4.3,6.7,3.4,7.6,3,1,2.115
7,Com2,220,6.5,4.4,5.5,5.4,4.4,6.5,3,2,3.282
7,Com1,221,7.5,3.5,6.6,4.4,5.6,5.4,3,3,4.914
7,Com1,222,7.5,3.4,6.3,4.6,5.4,5.5,1,3,2.355
7,Com2,224,6.6,4.9,5.7,5.8,4.6,6.9,2,2,2.033
7,Com1,225,7.4,3.6,6.6,4.4,5.5,5.5,1,3,1.55
7,Com1,226,7.5,3.5,6.5,4.5,5.4,5.6,3,3,3.185
7,Com2,228,6.5,4.4,5.5,5.4,4.4,6.5,3,2,2.131
7,Com1,229,7.3,3.6,6.3,4.6,5.4,5.5,1,3,1.68
7,Com2,230,6.5,4.4,5.6,5.3,4.7,6.2,1,2,2.064
7,Com1,233,7.6,3.4,6.5,4.5,5.5,5.5,1,3,1.967
7,Com3,234,5.6,5.3,4.7,6.2,3.6,7.3,1,1,2.352
7,Com3,236,5.3,5.8,4.2,6.9,3.4,7.7,2,1,2.208
7,Com3,240,5.4,5.5,4.5,6.4,3.3,7.6,1,1,1.744
8,Com3,4,5.7,5.5,4.7,6.5,3.8,7.4,3,1,47.601
8,Com1,5,7.3,3.6,6.3,4.6,5.4,5.5,2,1,32.69
8,Com2,6,6.6,4.4,5.6,5.4,4.7,6.3,1,1,23.091
8,Com2,7,6.5,4.6,5.6,5.5,4.7,6.4,1,1,16.052
8,Com2,10,6.3,4.5,5.4,5.4,4.5,6.3,3,1,57.506
8,Com1,13,7.7,3.4,6.6,4.5,5.6,5.5,1,3,14.176
8,Com1,14,7.5,3.4,6.3,4.6,5.4,5.5,2,1,19.204
8,Com1,15,7.5,3.5,6.5,4.5,5.4,5.6,2,2,21.826
8,Com1,17,7.4,3.8,6.6,4.6,5.5,5.7,2,1,28.641
8,Com3,19,5.5,5.5,4.5,6.5,3.4,7.6,3,2,26.401
8,Com1,24,7.5,3.3,6.4,4.4,5.4,5.4,1,1,12.658
8,Com3,25,5.6,5.4,4.7,6.3,3.6,7.4,2,3,41.986
8,Com2,26,6.5,4.4,5.4,5.5,4.4,6.5,1,1,26.368
8,Com2,27,6.6,4.6,5.7,5.5,4.7,6.5,1,3,15.391
8,Com3,29,5.6,5.4,4.7,6.3,3.5,7.5,2,3,16.256
8,Com1,30,7.5,3.6,6.6,4.5,5.5,5.6,3,1,7.714
8,Com3,31,5.4,5.6,4.3,6.7,3.4,7.6,3,3,21.95
8,Com3,32,5.6,5.2,4.5,6.3,3.5,7.3,3,3,17.841
8,Com3,34,5.5,5.4,4.4,6.5,3.4,7.5,1,3,15.168
8,Com2,35,6.4,4.6,5.4,5.6,4.3,6.7,1,2,14.863
8,Com3,37,5.3,5.6,4.2,6.7,3.4,7.5,3,2,4.434
8,Com1,39,7.4,3.5,6.5,4.4,5.4,5.5,2,1,20.209
8,Com1,40,7.6,3.5,6.6,4.5,5.6,5.5,2,1,24.463
8,Com2,41,6.2,4.7,5.3,5.6,4.2,6.7,2,2,14.927
8,Com2,42,6.6,4.4,5.6,5.4,4.7,6.3,2,1,12.415
8,Com3,43,5.4,5.5,4.4,6.5,3.4,7.5,3,3,4.784
8,Com3,48,5.5,5.6,4.5,6.6,3.5,7.6,2,3,19.998
8,Com3,53,5.4,5.4,4.4,6.4,3.3,7.5,3,3,4.127
8,Com3,55,5.4,5.4,4.5,6.3,3.4,7.4,2,3,10.705
8,Com2,56,6.6,4.5,5.5,5.6,4.5,6.6,2,2,22.031
8,Com3,59,5.4,5.4,4.5,6.3,3.3,7.5,1,3,2.991
8,Com3,60,5.4,5.4,4.4,6.4,3.5,7.3,3,3,5.838
8,Com2,61,6.4,4.7,5.5,5.6,4.6,6.5,3,1,9.441
8,Com3,63,5.6,5.5,4.5,6.6,3.5,7.6,3,3,5.566
8,Com3,65,5.4,5.6,4.3,6.7,3.4,7.6,1,3,10.755
8,Com2,66,6.5,4.4,5.5,5.4,4.4,6.5,2,3,5.712
8,Com1,67,7.4,3.7,6.2,4.9,5.3,5.8,3,1,4.8
8,Com2,68,6.2,4.3,5.1,5.4,4.0,6.5,1,3,23.681
8,Com1,69,7.2,3.7,6.2,4.7,5.3,5.6,2,1,3.167
8,Com2,70,6.4,4.4,5.4,5.4,4.4,6.4,3,1,2.719
8,Com3,72,5.7,5.2,4.8,6.1,3.7,7.2,2,3,3.293
8,Com3,81,5.4,5.5,4.3,6.6,3.3,7.6,3,3,7.119
8,Com1,84,7.6,3.4,6.5,4.5,5.5,5.5,1,1,3.28
8,Com1,85,7.5,3.5,6.6,4.4,5.5,5.5,3,1,5.647
8,Com2,87,6.7,4.4,5.6,5.5,4.5,6.6,3,1,6.752
8,Com1,93,7.4,3.6,6.6,4.4,5.5,5.5,2,1,2.427
8,Com2,94,6.3,4.6,5.4,5.5,4.4,6.5,2,1,8.51
8,Com1,96,7.7,3.4,6.5,4.6,5.6,5.5,3,1,5.006
8,Com1,97,7.6,3.3,6.5,4.4,5.6,5.3,2,2,4.99
8,Com1,98,7.8,3.1,6.8,4.1,5.7,5.2,1,1,8.0
8,Com2,101,6.3,4.6,5.4,5.5,4.3,6.6,1,3,3.247
8,Com3,102,5.3,5.4,4.4,6.3,3.4,7.3,3,3,2.625
8,Com3,103,5.4,5.5,4.3,6.6,3.4,7.5,2,2,2.702
8,Com3,105,5.6,5.3,4.7,6.2,3.6,7.3,1,3,3.952
8,Com1,106,7.5,3.5,6.5,4.5,5.4,5.6,1,1,4.706
8,Com3,107,5.6,5.5,4.7,6.4,3.6,7.5,3,3,6.946
8,Com2,111,6.6,4.9,5.7,5.8,4.6,6.9,1,3,5.728
8,Com2,113,6.4,4.7,5.5,5.6,4.5,6.6,2,1,2.865
8,Com3,115,5.5,5.7,4.6,6.6,3.5,7.7,2,3,3.356
8,Com1,118,7.4,3.3,6.4,4.3,5.3,5.4,1,1,8.143
8,Com1,119,7.6,3.5,6.4,4.7,5.5,5.6,1,1,2.88
8,Com3,121,5.5,5.6,4.6,6.5,3.6,7.5,3,3,2.991
8,Com3,122,5.6,5.5,4.6,6.5,3.5,7.6,1,3,3.046
8,Com1,123,7.6,3.5,6.4,4.7,5.5,5.6,2,1,4.273
8,Com3,125,5.4,5.5,4.5,6.4,3.3,7.6,2,3,2.367
8,Com2,128,6.4,4.3,5.3,5.4,4.4,6.3,3,3,2.83
8,Com2,129,6.5,4.5,5.4,5.6,4.5,6.5,2,1,5.122
8,Com2,132,6.5,4.4,5.6,5.3,4.7,6.2,2,1,3.246
8,Com3,143,5.4,5.6,4.5,6.5,3.4,7.6,1,3,2.898
8,Com1,144,7.6,3.4,6.6,4.4,5.6,5.4,2,1,3.503
8,Com1,145,7.6,3.3,6.5,4.4,5.5,5.4,3,3,5.278
8,Com1,146,7.7,3.1,6.5,4.3,5.6,5.2,2,1,2.29
8,Com3,148,5.7,5.8,4.6,6.9,3.6,7.9,3,3,3.006
8,Com2,149,6.3,4.5,5.4,5.4,4.4,6.4,2,1,6.607
8,Com2,151,6.6,4.5,5.6,5.5,4.5,6.6,3,2,3.921
8,Com3,152,5.5,5.4,4.4,6.5,3.4,7.5,2,3,3.953
8,Com3,153,5.5,5.6,4.5,6.6,3.5,7.6,1,1,2.096
8,Com3,156,5.3,5.8,4.2,6.9,3.4,7.7,1,3,3.297
8,Com1,158,7.0,3.5,6.2,4.3,5.1,5.4,1,1,2.112
8,Com3,159,5.6,5.5,4.5,6.6,3.6,7.5,1,3,3.504
8,Com2,160,6.6,4.4,5.5,5.5,4.4,6.6,2,1,3.665
8,Com3,161,5.4,5.5,4.4,6.5,3.4,7.5,1,2,2.43
8,Com1,162,7.6,3.5,6.5,4.6,5.6,5.5,2,1,4.062
8,Com2,165,6.4,4.4,5.4,5.4,4.5,6.3,2,1,2.002
8,Com1,166,7.3,3.5,6.4,4.4,5.4,5.4,2,1,2.866
8,Com1,169,7.6,3.5,6.5,4.6,5.5,5.6,1,1,2.337
8,Com2,172,6.8,4.1,5.7,5.2,4.8,6.1,2,1,3.662
8,Com2,173,6.3,4.6,5.4,5.5,4.5,6.4,1,1,4.305
8,Com2,177,6.4,4.5,5.4,5.5,4.3,6.6,1,3,3.759
8,Com3,184,5.5,5.5,4.4,6.6,3.5,7.5,3,3,3.455
8,Com2,187,6.6,4.6,5.5,5.7,4.6,6.6,3,1,4.655
8,Com3,190,5.1,5.4,4.0,6.5,3.1,7.4,2,2,3.983
8,Com1,192,7.3,3.5,6.3,4.5,5.4,5.4,1,1,2.32
8,Com1,195,7.4,3.4,6.3,4.5,5.4,5.4,3,1,5.693
8,Com2,196,6.6,4.2,5.6,5.2,4.5,6.3,3,1,8.591
8,Com1,197,7.5,3.5,6.6,4.4,5.6,5.4,2,1,2.688
8,Com1,198,7.4,3.5,6.5,4.4,5.5,5.4,3,1,2.653
8,Com3,199,5.6,5.5,4.7,6.4,3.5,7.6,3,3,2.447
8,Com2,201,6.6,4.4,5.5,5.5,4.6,6.4,3,1,2.704
8,Com2,202,6.5,4.6,5.6,5.5,4.7,6.4,2,1,3.102
8,Com2,203,6.5,4.6,5.5,5.6,4.5,6.6,2,1,6.959
8,Com1,209,7.6,3.2,6.6,4.2,5.6,5.2,1,1,3.615
8,Com2,212,6.2,4.9,5.3,5.8,4.2,6.9,1,3,4.754
8,Com1,213,7.5,3.4,6.4,4.5,5.4,5.5,3,1,3.119
8,Com1,214,7.6,3.5,6.7,4.4,5.6,5.5,1,1,2.511
8,Com2,216,6.4,4.7,5.5,5.6,4.5,6.6,1,1,3.008
8,Com1,217,7.7,3.5,6.6,4.6,5.7,5.5,2,2,5.36
8,Com2,218,6.5,4.3,5.6,5.2,4.5,6.3,3,3,5.167
8,Com2,220,6.5,4.5,5.5,5.5,4.5,6.5,1,1,3.6
8,Com2,221,6.5,4.5,5.4,5.6,4.3,6.7,2,3,2.384
8,Com3,223,5.5,5.5,4.6,6.4,3.4,7.6,1,3,3.727
8,Com1,225,7.4,3.6,6.4,4.6,5.4,5.6,1,1,2.111
8,Com2,226,6.6,4.5,5.6,5.5,4.6,6.5,1,1,2.545
8,Com1,228,7.5,3.4,6.3,4.6,5.4,5.5,3,1,2.067
8,Com1,229,7.8,3.7,6.6,4.9,5.7,5.8,1,1,2.272
8,Com2,231,6.5,4.4,5.5,5.4,4.4,6.5,3,1,4.047
8,Com1,236,7.5,3.6,6.4,4.7,5.5,5.6,1,1,1.76
8,Com3,237,5.5,5.6,4.5,6.6,3.5,7.6,3,3,2.639
8,Com3,239,5.6,5.2,4.5,6.3,3.6,7.2,1,1,2.689
8,Com3,240,5.5,5.6,4.5,6.6,3.5,7.6,2,2,2.496
9,Com2,1,6.6,4.4,5.5,5.5,4.4,6.6,1,2,33.576
9,Com3,4,5.4,5.5,4.4,6.5,3.4,7.5,1,1,10.098
9,Com1,5,7.4,3.3,6.4,4.3,5.3,5.4,2,3,12.691
9,Com1,7,7.6,3.3,6.5,4.4,5.5,5.4,2,3,6.372
9,Com3,8,5.5,5.4,4.4,6.5,3.4,7.5,1,1,6.372
9,Com3,9,5.6,5.4,4.7,6.3,3.5,7.5,1,1,5.843
9,Com2,10,6.4,4.3,5.3,5.4,4.4,6.3,2,2,3.891
9,Com2,12,6.3,4.6,5.4,5.5,4.5,6.4,2,2,5.986
9,Com1,14,7.6,3.4,6.5,4.5,5.5,5.5,3,3,3.841
9,Com1,15,7.7,3.4,6.5,4.6,5.6,5.5,2,3,3.778
9,Com3,16,5.6,5.5,4.5,6.6,3.6,7.5,3,1,3.252
9,Com2,20,6.5,4.6,5.5,5.6,4.5,6.6,1,2,7.058
9,Com2,21,6.6,4.4,5.6,5.4,4.7,6.3,3,2,6.178
9,Com3,22,5.5,5.4,4.4,6.5,3.4,7.5,3,1,7.251
9,Com1,24,7.4,3.5,6.5,4.4,5.4,5.5,3,3,5.221
9,Com3,26,5.4,5.6,4.5,6.5,3.4,7.6,1,1,7.583
9,Com1,28,7.6,3.3,6.5,4.4,5.6,5.3,3,3,11.299
9,Com1,29,7.3,3.5,6.3,4.5,5.4,5.4,1,3,2.943
9,Com1,31,7.4,3.8,6.6,4.6,5.5,5.7,1,3,4.033
9,Com1,32,7.5,3.5,6.6,4.4,5.6,5.4,1,3,3.759
9,Com2,34,6.4,4.7,5.5,5.6,4.6,6.5,1,2,5.49
9,Com1,35,7.5,3.3,6.4,4.4,5.4,5.4,3,3,6.496
9,Com3,36,5.6,5.5,4.6,6.5,3.5,7.6,3,1,4.447
9,Com1,38,7.4,3.7,6.2,4.9,5.3,5.8,1,3,5.026
9,Com2,39,6.6,4.4,5.5,5.5,4.6,6.4,1,2,1.837
9,Com2,43,6.2,4.7,5.3,5.6,4.2,6.7,3,2,3.088
9,Com3,45,5.3,5.6,4.2,6.7,3.4,7.5,2,1,3.714
9,Com1,46,7.7,3.4,6.6,4.5,5.6,5.5,2,3,5.678
9,Com2,47,6.5,4.4,5.5,5.4,4.4,6.5,2,2,4.482
9,Com3,48,5.3,5.4,4.4,6.3,3.4,7.3,1,1,2.43
9,Com3,52,5.5,5.6,4.5,6.6,3.5,7.6,1,1,11.107
9,Com2,55,6.4,4.7,5.5,5.6,4.5,6.6,1,2,3.759
9,Com1,58,7.6,3.5,6.5,4.6,5.5,5.6,2,3,3.551
9,Com2,60,6.5,4.4,5.5,5.4,4.4,6.5,2,2,4.641
9,Com2,61,6.3,4.5,5.4,5.4,4.4,6.4,2,2,7.551
9,Com3,63,5.4,5.4,4.4,6.4,3.5,7.3,3,1,4.385
9,Com1,68,7.5,3.6,6.4,4.7,5.5,5.6,2,2,10.287
9,Com3,69,5.6,5.5,4.5,6.6,3.5,7.6,1,2,6.063
9,Com1,71,7.6,3.5,6.6,4.5,5.6,5.5,2,2,19.745
9,Com3,72,5.6,5.5,4.7,6.4,3.6,7.5,3,2,3.758
9,Com3,78,5.6,5.2,4.5,6.3,3.5,7.3,3,2,4.259
9,Com3,81,5.4,5.6,4.3,6.7,3.4,7.6,3,2,13.552
9,Com1,88,7.6,3.5,6.4,4.7,5.5,5.6,1,2,12.129
9,Com3,92,5.5,5.5,4.5,6.5,3.4,7.6,1,2,4.382
9,Com2,97,6.4,4.4,5.4,5.4,4.4,6.4,1,2,11.005
9,Com3,99,5.5,5.6,4.5,6.6,3.5,7.6,2,1,21.537
9,Com1,101,7.2,3.7,6.2,4.7,5.3,5.6,2,3,4.463
9,Com3,102,5.5,5.6,4.5,6.6,3.5,7.6,2,1,4.941
9,Com1,103,7.4,3.6,6.6,4.4,5.5,5.5,2,3,5.94
9,Com2,104,6.6,4.6,5.7,5.5,4.7,6.5,2,1,6.881
9,Com1,105,7.8,3.1,6.8,4.1,5.7,5.2,1,2,6.448
9,Com3,107,5.7,5.8,4.6,6.9,3.6,7.9,2,1,4.96
9,Com1,108,7.5,3.5,6.5,4.5,5.4,5.6,1,2,3.792
9,Com2,109,6.4,4.7,5.5,5.6,4.5,6.6,2,2,6.607
9,Com2,111,6.6,4.9,5.7,5.8,4.6,6.9,2,2,5.248
9,Com1,113,7.6,3.5,6.7,4.4,5.6,5.5,2,3,5.103
9,Com1,118,7.5,3.6,6.6,4.5,5.5,5.6,1,2,8.72
9,Com3,119,5.4,5.4,4.4,6.4,3.3,7.5,1,1,7.663
9,Com2,124,6.2,4.9,5.3,5.8,4.2,6.9,1,2,3.921
9,Com3,126,5.5,5.6,4.5,6.6,3.5,7.6,1,2,6.031
9,Com3,130,5.4,5.4,4.5,6.3,3.3,7.5,1,1,6.831
9,Com2,132,6.5,4.3,5.6,5.2,4.5,6.3,1,2,10.847
9,Com1,133,7.6,3.4,6.6,4.4,5.6,5.4,1,3,6.511
9,Com1,134,7.7,3.5,6.6,4.6,5.7,5.5,2,2,5.438
9,Com3,138,5.6,5.2,4.5,6.3,3.6,7.2,3,1,9.887
9,Com1,140,7.5,3.4,6.3,4.6,5.4,5.5,1,2,22.495
9,Com2,145,6.5,4.4,5.4,5.5,4.4,6.5,1,1,3.09
9,Com3,146,5.3,5.8,4.2,6.9,3.4,7.7,1,2,2.559
9,Com3,148,5.4,5.6,4.3,6.7,3.4,7.6,3,2,3.666
9,Com2,149,6.3,4.6,5.4,5.5,4.3,6.6,3,1,4.96
9,Com1,150,7.5,3.5,6.5,4.5,5.4,5.6,2,2,3.488
9,Com1,151,7.3,3.5,6.4,4.4,5.4,5.4,1,2,3.76
9,Com2,153,6.4,4.5,5.4,5.5,4.3,6.6,2,1,19.504
9,Com2,155,6.5,4.5,5.4,5.6,4.3,6.7,3,1,4.144
9,Com1,156,7.8,3.7,6.6,4.9,5.7,5.8,2,2,4.128
9,Com2,157,6.5,4.5,5.4,5.6,4.5,6.5,2,1,5.438
9,Com3,159,5.5,5.5,4.6,6.4,3.4,7.6,3,2,5.008
9,Com3,160,5.5,5.7,4.6,6.6,3.5,7.7,1,2,3.682
9,Com2,161,6.7,4.4,5.6,5.5,4.5,6.6,2,3,7.23
9,Com2,163,6.2,4.3,5.1,5.4,4.0,6.5,1,1,4.578
9,Com3,164,5.4,5.5,4.5,6.4,3.3,7.6,2,2,2.767
9,Com2,169,6.3,4.6,5.4,5.5,4.4,6.5,3,1,4.719
9,Com3,171,5.7,5.2,4.8,6.1,3.7,7.2,1,2,2.928
9,Com2,175,6.8,4.1,5.7,5.2,4.8,6.1,1,3,5.824
9,Com3,177,5.5,5.5,4.4,6.6,3.5,7.5,3,2,3.167
9,Com3,178,5.4,5.5,4.4,6.5,3.4,7.5,1,2,3.873
9,Com3,179,5.4,5.4,4.5,6.3,3.4,7.4,2,2,3.903
9,Com3,180,5.1,5.4,4.0,6.5,3.1,7.4,2,2,3.361
9,Com3,181,5.7,5.5,4.7,6.5,3.8,7.4,3,2,4.045
9,Com2,184,6.6,4.5,5.6,5.5,4.6,6.5,3,1,3.778
9,Com2,185,6.4,4.4,5.4,5.4,4.5,6.3,3,3,4.462
9,Com1,186,7.4,3.6,6.4,4.6,5.4,5.6,2,2,3.664
9,Com3,190,5.6,5.4,4.7,6.3,3.6,7.4,3,2,3.392
9,Com2,191,6.5,4.4,5.6,5.3,4.7,6.2,3,3,2.399
9,Com3,192,5.6,5.3,4.7,6.2,3.6,7.3,2,2,3.839
9,Com2,196,6.6,4.5,5.6,5.5,4.5,6.6,1,2,2.943
9,Com2,197,6.6,4.6,5.5,5.7,4.6,6.6,3,2,4.287
9,Com2,199,6.6,4.5,5.5,5.6,4.5,6.6,1,2,2.674
9,Com2,200,6.5,4.6,5.6,5.5,4.7,6.4,2,2,2.639
9,Com2,201,6.4,4.6,5.4,5.6,4.3,6.7,1,1,6.066
9,Com3,202,5.4,5.5,4.3,6.6,3.4,7.5,1,2,2.59
9,Com2,204,6.5,4.6,5.6,5.5,4.7,6.4,2,2,3.886
9,Com3,209,5.4,5.5,4.3,6.6,3.3,7.6,2,2,2.848
9,Com3,210,5.5,5.6,4.6,6.5,3.6,7.5,1,2,2.608
9,Com1,212,7.0,3.5,6.2,4.3,5.1,5.4,3,2,3.566
9,Com1,213,7.6,3.5,6.5,4.6,5.6,5.5,1,3,6.531
9,Com1,216,7.3,3.6,6.3,4.6,5.4,5.5,2,2,5.472
9,Com1,218,7.5,3.4,6.4,4.5,5.4,5.5,3,3,7.632
9,Com3,219,5.6,5.5,4.7,6.4,3.5,7.6,2,1,3.712
9,Com1,222,7.6,3.5,6.4,4.7,5.5,5.6,2,2,6.531
9,Com1,224,7.5,3.5,6.6,4.4,5.5,5.5,3,2,3.312
9,Com2,225,6.5,4.5,5.5,5.5,4.5,6.5,1,1,6.463
9,Com1,226,7.6,3.2,6.6,4.2,5.6,5.2,2,3,1.713
9,Com1,227,7.4,3.4,6.3,4.5,5.4,5.4,3,2,2.142
9,Com1,230,7.5,3.4,6.3,4.6,5.4,5.5,2,2,2.254
9,Com2,231,6.6,4.2,5.6,5.2,4.5,6.3,3,3,5.073
9,Com2,232,6.3,4.5,5.4,5.4,4.5,6.3,3,1,3.854
9,Com2,235,6.6,4.4,5.6,5.4,4.7,6.3,1,1,7.999
9,Com1,236,7.7,3.1,6.5,4.3,5.6,5.2,3,2,2.879
9,Com1,240,7.4,3.5,6.5,4.4,5.5,5.4,3,2,6.208
10,Com3,1,5.7,5.2,4.8,6.1,3.7,7.2,3,3,70.374
10,Com3,4,5.5,5.6,4.6,6.5,3.6,7.5,2,3,11.906
10,Com2,5,6.5,4.5,5.4,5.6,4.5,6.5,1,2,15.426
10,Com1,6,7.6,3.5,6.7,4.4,5.6,5.5,3,1,7.81
10,Com3,8,5.4,5.5,4.3,6.6,3.3,7.6,3,1,10.595
10,Com3,10,5.5,5.5,4.4,6.6,3.5,7.5,3,3,5.09
10,Com3,11,5.5,5.4,4.4,6.5,3.4,7.5,2,1,10.482
10,Com2,12,6.5,4.6,5.5,5.6,4.5,6.6,3,2,6.131
10,Com3,14,5.5,5.5,4.5,6.5,3.4,7.6,3,3,10.546
10,Com3,15,5.6,5.5,4.7,6.4,3.6,7.5,1,1,4.914
10,Com3,16,5.3,5.4,4.4,6.3,3.4,7.3,3,1,3.876
10,Com2,18,6.3,4.6,5.4,5.5,4.5,6.4,2,3,7.937
10,Com3,20,5.5,5.5,4.6,6.4,3.4,7.6,1,1,5.01
10,Com2,21,6.6,4.5,5.6,5.5,4.5,6.6,2,2,9.698
10,Com3,23,5.3,5.6,4.2,6.7,3.4,7.5,3,2,10.673
10,Com1,25,7.4,3.5,6.5,4.4,5.4,5.5,1,2,6.655
10,Com2,27,6.6,4.5,5.6,5.5,4.6,6.5,2,2,6.081
10,Com2,29,6.7,4.4,5.6,5.5,4.5,6.6,2,1,4.254
10,Com2,38,6.3,4.6,5.4,5.5,4.3,6.6,2,1,4.221
10,Com2,40,6.3,4.5,5.4,5.4,4.4,6.4,2,3,3.759
10,Com2,42,6.6,4.4,5.6,5.4,4.7,6.3,2,1,11.981
10,Com2,46,6.5,4.6,5.6,5.5,4.7,6.4,3,2,1.936
10,Com2,47,6.6,4.4,5.5,5.5,4.6,6.4,2,2,2.721
10,Com2,49,6.2,4.7,5.3,5.6,4.2,6.7,2,1,2.896
10,Com3,50,5.4,5.5,4.4,6.5,3.4,7.5,1,1,1.952
10,Com1,51,7.6,3.5,6.5,4.6,5.6,5.5,2,1,7.31
10,Com2,56,6.4,4.7,5.5,5.6,4.5,6.6,1,1,3.808
10,Com1,58,7.6,3.3,6.5,4.4,5.6,5.3,1,1,3.406
10,Com2,60,6.4,4.4,5.4,5.4,4.5,6.3,3,3,4.866
10,Com2,63,6.2,4.3,5.1,5.4,4.0,6.5,1,1,3.263
10,Com2,65,6.4,4.7,5.5,5.6,4.5,6.6,1,2,1.554
10,Com2,68,6.8,4.1,5.7,5.2,4.8,6.1,1,1,4.29
10,Com2,69,6.5,4.4,5.6,5.3,4.7,6.2,2,3,4.833
10,Com3,73,5.6,5.5,4.5,6.6,3.5,7.6,2,3,3.135
10,Com2,76,6.2,4.9,5.3,5.8,4.2,6.9,1,1,3.695
10,Com1,77,7.4,3.6,6.6,4.4,5.5,5.5,3,1,3.473
10,Com2,78,6.6,4.5,5.5,5.6,4.5,6.6,1,1,5.632
10,Com1,79,7.2,3.7,6.2,4.7,5.3,5.6,1,1,5.358
10,Com1,80,7.7,3.5,6.6,4.6,5.7,5.5,1,2,5.634
10,Com3,81,5.7,5.8,4.6,6.9,3.6,7.9,2,3,4.863
10,Com1,82,7.4,3.8,6.6,4.6,5.5,5.7,1,1,2.062
10,Com2,84,6.3,4.6,5.4,5.5,4.4,6.5,1,3,4.881
10,Com2,91,6.6,4.6,5.7,5.5,4.7,6.5,1,1,2.081
10,Com3,93,5.5,5.6,4.5,6.6,3.5,7.6,2,3,3.408
10,Com1,94,7.3,3.6,6.3,4.6,5.4,5.5,3,1,2.05
10,Com3,95,5.1,5.4,4.0,6.5,3.1,7.4,1,1,6.366
10,Com1,97,7.5,3.5,6.5,4.5,5.4,5.6,2,1,1.474
10,Com1,98,7.6,3.3,6.5,4.4,5.5,5.4,1,1,1.782
10,Com2,99,6.5,4.5,5.4,5.6,4.3,6.7,2,2,3.198
10,Com1,100,7.6,3.5,6.6,4.5,5.6,5.5,1,1,0.975
10,Com1,102,7.6,3.5,6.4,4.7,5.5,5.6,1,1,1.663
10,Com3,103,5.3,5.8,4.2,6.9,3.4,7.7,2,3,2.546
10,Com1,104,7.6,3.2,6.6,4.2,5.6,5.2,3,1,3.71
10,Com3,105,5.5,5.7,4.6,6.6,3.5,7.7,2,3,2.367
10,Com2,106,6.4,4.7,5.5,5.6,4.6,6.5,2,1,3.263
10,Com1,107,7.7,3.4,6.5,4.6,5.6,5.5,3,1,1.743
10,Com3,111,5.6,5.5,4.5,6.6,3.6,7.5,2,3,1.871
10,Com3,112,5.4,5.6,4.3,6.7,3.4,7.6,3,3,3.488
10,Com1,115,7.6,3.5,6.5,4.6,5.5,5.6,3,1,2.146
10,Com3,116,5.6,5.4,4.7,6.3,3.6,7.4,1,3,2.399
10,Com3,120,5.6,5.3,4.7,6.2,3.6,7.3,2,3,3.005
10,Com1,126,7.8,3.1,6.8,4.1,5.7,5.2,1,1,1.032
10,Com3,130,5.5,5.6,4.5,6.6,3.5,7.6,1,3,1.567
10,Com3,132,5.4,5.4,4.5,6.3,3.4,7.4,2,3,4.143
10,Com1,133,7.5,3.5,6.6,4.4,5.6,5.4,2,1,1.503
10,Com3,135,5.6,5.2,4.5,6.3,3.5,7.3,1,1,1.904
10,Com3,136,5.7,5.5,4.7,6.5,3.8,7.4,3,1,2.303
10,Com3,137,5.4,5.6,4.5,6.5,3.4,7.6,3,3,1.808
10,Com2,139,6.4,4.4,5.4,5.4,4.4,6.4,3,2,6.75
10,Com2,141,6.5,4.4,5.5,5.4,4.4,6.5,1,2,4.176
10,Com2,142,6.6,4.9,5.7,5.8,4.6,6.9,1,2,5.134
10,Com1,143,7.7,3.1,6.5,4.3,5.6,5.2,1,1,1.713
10,Com1,144,7.5,3.4,6.4,4.5,5.4,5.5,2,1,1.521
10,Com2,147,6.5,4.5,5.5,5.5,4.5,6.5,2,2,2.881
10,Com3,152,5.4,5.5,4.5,6.4,3.3,7.6,2,1,2.079
10,Com2,153,6.4,4.3,5.3,5.4,4.4,6.3,2,2,2.481
10,Com3,154,5.6,5.4,4.7,6.3,3.5,7.5,2,1,1.327
10,Com2,158,6.5,4.4,5.5,5.4,4.4,6.5,1,1,0.919
10,Com3,161,5.5,5.6,4.5,6.6,3.5,7.6,1,2,3.703
10,Com2,162,6.5,4.4,5.4,5.5,4.4,6.5,3,1,1.838
10,Com1,163,7.6,3.5,6.4,4.7,5.5,5.6,2,3,1.728
10,Com2,164,6.6,4.4,5.6,5.4,4.7,6.3,1,1,1.871
10,Com1,167,7.5,3.5,6.6,4.4,5.5,5.5,1,1,2.096
10,Com1,169,7.5,3.4,6.3,4.6,5.4,5.5,1,1,1.632
10,Com2,173,6.6,4.4,5.5,5.5,4.4,6.6,2,2,2.032
10,Com1,176,7.5,3.3,6.4,4.4,5.4,5.4,1,3,1.501
10,Com1,180,7.5,3.4,6.3,4.6,5.4,5.5,1,1,2.318
10,Com3,182,5.4,5.5,4.3,6.6,3.4,7.5,1,1,2.423
10,Com2,183,6.3,4.5,5.4,5.4,4.5,6.3,1,2,1.791
10,Com2,185,6.6,4.6,5.5,5.7,4.6,6.6,2,1,1.505
10,Com3,187,5.5,5.4,4.4,6.5,3.4,7.5,1,1,1.44
10,Com3,188,5.4,5.4,4.4,6.4,3.5,7.3,1,2,2.534
10,Com1,189,7.4,3.4,6.3,4.5,5.4,5.4,2,1,1.95
10,Com1,192,7.4,3.5,6.5,4.4,5.5,5.4,2,1,2.367
10,Com1,194,7.5,3.5,6.5,4.5,5.4,5.6,3,1,2.366
10,Com1,195,7.0,3.5,6.2,4.3,5.1,5.4,2,2,1.873
10,Com1,197,7.4,3.6,6.4,4.6,5.4,5.6,1,3,1.446
10,Com1,200,7.7,3.4,6.6,4.5,5.6,5.5,3,1,1.808
10,Com1,203,7.6,3.4,6.5,4.5,5.5,5.5,2,1,1.776
10,Com1,204,7.6,3.4,6.6,4.4,5.6,5.4,1,1,1.616
10,Com3,206,5.5,5.6,4.5,6.6,3.5,7.6,1,3,2.016
10,Com2,212,6.5,4.6,5.6,5.5,4.7,6.4,1,1,2.35
10,Com1,213,7.4,3.3,6.4,4.3,5.3,5.4,2,1,2.099
10,Com2,214,6.5,4.3,5.6,5.2,4.5,6.3,1,2,2.352
10,Com3,216,5.6,5.5,4.6,6.5,3.5,7.6,1,2,1.918
10,Com1,218,7.3,3.5,6.4,4.4,5.4,5.4,3,1,1.935
10,Com1,219,7.5,3.6,6.6,4.5,5.5,5.6,3,1,1.711
10,Com1,222,7.8,3.7,6.6,4.9,5.7,5.8,1,1,1.614
10,Com2,224,6.4,4.6,5.4,5.6,4.3,6.7,1,2,1.732
10,Com1,225,7.4,3.7,6.2,4.9,5.3,5.8,2,1,1.982
10,Com3,226,5.4,5.4,4.4,6.4,3.3,7.5,1,3,1.965
10,Com3,227,5.4,5.4,4.5,6.3,3.3,7.5,1,3,1.554
10,Com3,229,5.4,5.5,4.4,6.5,3.4,7.5,2,2,1.81
10,Com2,231,6.4,4.5,5.4,5.5,4.3,6.6,3,2,1.808
10,Com3,232,5.4,5.6,4.3,6.7,3.4,7.6,2,2,1.921
10,Com1,233,7.5,3.6,6.4,4.7,5.5,5.6,1,3,3.106
10,Com1,235,7.3,3.5,6.3,4.5,5.4,5.4,1,3,1.888
10,Com2,236,6.6,4.2,5.6,5.2,4.5,6.3,2,3,2.288
10,Com3,237,5.6,5.5,4.7,6.4,3.5,7.6,3,3,2.063
10,Com3,239,5.6,5.2,4.5,6.3,3.6,7.2,1,3,1.856
11,Com3,1,5.4,5.6,4.5,6.5,3.4,7.6,3,1,85.906
11,Com3,4,5.5,5.4,4.4,6.5,3.4,7.5,3,1,11.139
11,Com2,5,6.6,4.5,5.6,5.5,4.6,6.5,2,2,4.835
11,Com2,10,6.7,4.4,5.6,5.5,4.5,6.6,3,2,7.298
11,Com2,13,6.6,4.6,5.5,5.7,4.6,6.6,1,2,8.131
11,Com1,14,7.6,3.5,6.5,4.6,5.5,5.6,3,3,19.427
11,Com3,16,5.6,5.3,4.7,6.2,3.6,7.3,2,1,4.789
11,Com3,17,5.5,5.4,4.4,6.5,3.4,7.5,3,1,3.585
11,Com3,18,5.5,5.6,4.5,6.6,3.5,7.6,3,1,6.208
11,Com1,23,7.4,3.5,6.5,4.4,5.4,5.5,1,2,9.106
11,Com1,26,7.5,3.5,6.6,4.4,5.6,5.4,3,2,7.44
11,Com1,27,7.7,3.5,6.6,4.6,5.7,5.5,3,3,7.086
11,Com3,28,5.5,5.7,4.6,6.6,3.5,7.7,2,1,6.095
11,Com2,32,6.5,4.3,5.6,5.2,4.5,6.3,1,2,7.65
11,Com3,42,5.5,5.6,4.5,6.6,3.5,7.6,3,1,5.104
11,Com1,46,7.3,3.5,6.4,4.4,5.4,5.4,3,2,5.615
11,Com3,48,5.1,5.4,4.0,6.5,3.1,7.4,1,2,10.223
11,Com1,49,7.2,3.7,6.2,4.7,5.3,5.6,3,2,4.769
11,Com3,50,5.7,5.5,4.7,6.5,3.8,7.4,3,1,15.487
11,Com1,53,7.7,3.1,6.5,4.3,5.6,5.2,1,3,3.936
11,Com1,54,7.6,3.4,6.5,4.5,5.5,5.5,3,3,8.159
11,Com1,55,7.4,3.6,6.4,4.6,5.4,5.6,2,3,4.353
11,Com3,56,5.6,5.4,4.7,6.3,3.5,7.5,2,1,2.783
11,Com3,57,5.3,5.6,4.2,6.7,3.4,7.5,3,1,2.992
11,Com3,59,5.4,5.5,4.3,6.6,3.3,7.6,3,1,2.83
11,Com1,60,7.7,3.4,6.6,4.5,5.6,5.5,3,3,3.6
11,Com1,66,7.6,3.2,6.6,4.2,5.6,5.2,1,2,10.928
11,Com1,67,7.5,3.4,6.3,4.6,5.4,5.5,1,3,2.831
11,Com3,68,5.5,5.6,4.5,6.6,3.5,7.6,1,1,1.136
11,Com1,70,7.5,3.5,6.5,4.5,5.4,5.6,2,3,7.487
11,Com3,71,5.6,5.2,4.5,6.3,3.6,7.2,2,1,4.477
11,Com3,72,5.5,5.6,4.6,6.5,3.6,7.5,2,1,4.705
11,Com1,75,7.7,3.4,6.5,4.6,5.6,5.5,2,2,9.743
11,Com1,76,7.4,3.8,6.6,4.6,5.5,5.7,2,3,14.032
11,Com2,78,6.3,4.5,5.4,5.4,4.5,6.3,1,2,15.006
11,Com2,81,6.6,4.4,5.6,5.4,4.7,6.3,1,2,6.499
11,Com1,87,7.4,3.7,6.2,4.9,5.3,5.8,1,3,6.095
11,Com3,89,5.5,5.5,4.5,6.5,3.4,7.6,2,1,6.401
11,Com3,91,5.4,5.4,4.4,6.4,3.3,7.5,1,1,4.721
11,Com2,92,6.4,4.7,5.5,5.6,4.5,6.6,1,2,5.774
11,Com1,94,7.5,3.6,6.6,4.5,5.5,5.6,1,3,6.477
11,Com2,95,6.4,4.5,5.4,5.5,4.3,6.6,1,2,3.664
11,Com1,96,7.8,3.1,6.8,4.1,5.7,5.2,1,3,5.279
11,Com3,97,5.5,5.5,4.6,6.4,3.4,7.6,3,1,3.615
11,Com2,100,6.5,4.5,5.5,5.5,4.5,6.5,1,2,37.872
11,Com2,101,6.5,4.5,5.4,5.6,4.3,6.7,2,2,4.159
11,Com3,106,5.7,5.8,4.6,6.9,3.6,7.9,1,1,10.639
11,Com1,109,7.4,3.4,6.3,4.5,5.4,5.4,3,3,4.88
11,Com1,110,7.6,3.5,6.4,4.7,5.5,5.6,1,3,4.975
11,Com3,111,5.3,5.8,4.2,6.9,3.4,7.7,3,1,5.982
11,Com1,114,7.0,3.5,6.2,4.3,5.1,5.4,2,3,15.6
11,Com3,115,5.7,5.2,4.8,6.1,3.7,7.2,3,1,4.686
11,Com3,119,5.4,5.4,4.5,6.3,3.3,7.5,2,1,1.983
11,Com1,121,7.6,3.5,6.7,4.4,5.6,5.5,1,3,2.688
11,Com1,122,7.6,3.5,6.5,4.6,5.6,5.5,2,3,2.727
11,Com3,125,5.4,5.5,4.4,6.5,3.4,7.5,1,1,2.16
11,Com2,126,6.5,4.4,5.4,5.5,4.4,6.5,2,2,2.287
11,Com2,128,6.5,4.5,5.4,5.6,4.5,6.5,2,2,4.609
11,Com3,130,5.6,5.5,4.7,6.4,3.5,7.6,3,1,3.455
11,Com2,131,6.3,4.6,5.4,5.5,4.4,6.5,1,2,16.144
11,Com3,134,5.6,5.2,4.5,6.3,3.5,7.3,2,1,3.966
11,Com3,138,5.6,5.5,4.6,6.5,3.5,7.6,1,1,4.097
11,Com1,140,7.5,3.4,6.3,4.6,5.4,5.5,1,3,3.267
11,Com2,141,6.6,4.4,5.5,5.5,4.6,6.4,1,2,3.182
11,Com2,142,6.6,4.9,5.7,5.8,4.6,6.9,2,2,5.375
11,Com2,148,6.6,4.4,5.5,5.5,4.4,6.6,3,2,4.992
11,Com2,150,6.5,4.6,5.6,5.5,4.7,6.4,1,2,4.208
11,Com2,151,6.2,4.7,5.3,5.6,4.2,6.7,1,2,3.793
11,Com3,154,5.6,5.5,4.5,6.6,3.5,7.6,1,1,2.722
11,Com3,160,5.3,5.4,4.4,6.3,3.4,7.3,3,1,4.928
11,Com1,162,7.6,3.5,6.4,4.7,5.5,5.6,1,3,5.376
11,Com2,166,6.6,4.4,5.6,5.4,4.7,6.3,1,2,2.975
11,Com2,167,6.5,4.6,5.6,5.5,4.7,6.4,3,2,9.534
11,Com1,168,7.8,3.7,6.6,4.9,5.7,5.8,3,3,2.817
11,Com2,169,6.5,4.6,5.5,5.6,4.5,6.6,2,2,2.749
11,Com2,171,6.4,4.7,5.5,5.6,4.6,6.5,2,2,2.402
11,Com2,173,6.3,4.5,5.4,5.4,4.4,6.4,2,2,3.406
11,Com3,176,5.6,5.4,4.7,6.3,3.6,7.4,2,1,8.625
11,Com1,177,7.6,3.5,6.6,4.5,5.6,5.5,2,3,2.767
11,Com2,178,6.6,4.6,5.7,5.5,4.7,6.5,2,2,3.472
11,Com2,180,6.5,4.4,5.5,5.4,4.4,6.5,2,2,3.326
11,Com1,184,7.3,3.5,6.3,4.5,5.4,5.4,1,3,1.501
11,Com1,185,7.4,3.5,6.5,4.4,5.5,5.4,2,3,1.647
11,Com2,187,6.5,4.4,5.6,5.3,4.7,6.2,3,2,4.543
11,Com2,188,6.5,4.4,5.5,5.4,4.4,6.5,2,2,1.776
11,Com3,189,5.4,5.4,4.4,6.4,3.5,7.3,1,1,1.666
11,Com1,190,7.5,3.4,6.4,4.5,5.4,5.5,1,3,1.6
11,Com2,192,6.3,4.6,5.4,5.5,4.3,6.6,2,2,4.992
11,Com2,195,6.6,4.5,5.5,5.6,4.5,6.6,2,2,1.728
11,Com3,196,5.4,5.6,4.3,6.7,3.4,7.6,3,1,1.68
11,Com2,197,6.8,4.1,5.7,5.2,4.8,6.1,2,2,1.952
11,Com2,198,6.2,4.3,5.1,5.4,4.0,6.5,1,2,2.446
11,Com1,199,7.6,3.3,6.5,4.4,5.5,5.4,2,3,3.536
11,Com1,200,7.6,3.4,6.6,4.4,5.6,5.4,2,3,1.247
11,Com2,201,6.4,4.6,5.4,5.6,4.3,6.7,3,2,2.342
11,Com2,203,6.4,4.4,5.4,5.4,4.4,6.4,3,2,2.337
11,Com3,205,5.6,5.5,4.7,6.4,3.6,7.5,3,1,2.849
11,Com3,207,5.6,5.5,4.5,6.6,3.6,7.5,2,1,10.624
11,Com2,208,6.4,4.3,5.3,5.4,4.4,6.3,3,2,1.789
11,Com1,211,7.5,3.5,6.6,4.4,5.5,5.5,2,3,2.369
11,Com1,213,7.3,3.6,6.3,4.6,5.4,5.5,2,3,6.529
11,Com1,215,7.5,3.3,6.4,4.4,5.4,5.4,3,3,3.347
11,Com3,216,5.4,5.6,4.3,6.7,3.4,7.6,3,1,1.742
11,Com1,217,7.6,3.3,6.5,4.4,5.6,5.3,3,3,2.384
11,Com2,218,6.6,4.5,5.6,5.5,4.5,6.6,3,2,1.6
11,Com3,219,5.4,5.4,4.5,6.3,3.4,7.4,1,1,2.493
11,Com3,221,5.5,5.6,4.5,6.6,3.5,7.6,2,1,3.89
11,Com1,222,7.4,3.3,6.4,4.3,5.3,5.4,1,3,1.778
11,Com2,223,6.2,4.9,5.3,5.8,4.2,6.9,3,2,2.127
11,Com2,226,6.4,4.7,5.5,5.6,4.5,6.6,2,2,1.472
11,Com2,228,6.4,4.4,5.4,5.4,4.5,6.3,3,2,1.952
11,Com3,229,5.5,5.5,4.4,6.6,3.5,7.5,3,1,2.381
11,Com2,230,6.6,4.2,5.6,5.2,4.5,6.3,2,2,16.131
11,Com2,231,6.3,4.6,5.4,5.5,4.5,6.4,3,2,3.998
11,Com3,232,5.4,5.5,4.3,6.6,3.4,7.5,1,1,4.11
11,Com3,233,5.4,5.5,4.4,6.5,3.4,7.5,3,1,6.432
11,Com3,236,5.4,5.5,4.5,6.4,3.3,7.6,2,1,1.618
11,Com1,237,7.5,3.6,6.4,4.7,5.5,5.6,1,3,1.6
11,Com1,239,7.5,3.5,6.5,4.5,5.4,5.6,1,3,2.59
11,Com1,240,7.4,3.6,6.6,4.4,5.5,5.5,3,3,3.249
12,Com2,1,6.5,4.4,5.5,5.4,4.4,6.5,3,2,63.142
12,Com3,2,5.6,5.4,4.7,6.3,3.6,7.4,3,2,17.636
12,Com2,6,6.6,4.5,5.6,5.5,4.6,6.5,2,1,8.018
12,Com2,9,6.6,4.4,5.5,5.5,4.6,6.4,2,2,8.274
12,Com3,11,5.6,5.5,4.5,6.6,3.5,7.6,2,3,9.617
12,Com2,16,6.2,4.3,5.1,5.4,4.0,6.5,2,1,14.002
12,Com2,23,6.6,4.4,5.6,5.4,4.7,6.3,3,3,9.523
12,Com1,24,7.8,3.1,6.8,4.1,5.7,5.2,2,2,4.724
12,Com3,29,5.4,5.4,4.5,6.3,3.4,7.4,3,2,14.337
12,Com2,30,6.8,4.1,5.7,5.2,4.8,6.1,3,2,11.042
12,Com1,31,7.6,3.3,6.5,4.4,5.6,5.3,2,3,4.431
12,Com2,32,6.6,4.9,5.7,5.8,4.6,6.9,2,2,9.248
12,Com3,33,5.5,5.5,4.6,6.4,3.4,7.6,3,1,6.51
12,Com2,35,6.3,4.6,5.4,5.5,4.5,6.4,3,1,9.343
12,Com3,36,5.5,5.6,4.5,6.6,3.5,7.6,2,1,6.031
12,Com2,39,6.5,4.4,5.6,5.3,4.7,6.2,2,3,9.299
12,Com2,40,6.4,4.5,5.4,5.5,4.3,6.6,3,1,8.624
12,Com3,41,5.5,5.5,4.5,6.5,3.4,7.6,1,2,5.407
12,Com3,43,5.6,5.5,4.7,6.4,3.6,7.5,2,1,4.128
12,Com1,46,7.5,3.6,6.4,4.7,5.5,5.6,3,1,6.367
12,Com1,47,7.4,3.5,6.5,4.4,5.5,5.4,1,1,5.566
12,Com2,48,6.3,4.6,5.4,5.5,4.4,6.5,1,1,10.831
12,Com1,50,7.6,3.3,6.5,4.4,5.5,5.4,1,2,6.912
12,Com1,51,7.5,3.6,6.6,4.5,5.5,5.6,2,2,4.222
12,Com3,52,5.4,5.6,4.3,6.7,3.4,7.6,2,2,14.367
12,Com3,56,5.5,5.6,4.5,6.6,3.5,7.6,1,1,3.12
12,Com3,58,5.7,5.8,4.6,6.9,3.6,7.9,3,1,3.55
12,Com2,62,6.4,4.6,5.4,5.6,4.3,6.7,2,1,7.495
12,Com1,65,7.0,3.5,6.2,4.3,5.1,5.4,3,1,4.818
12,Com1,67,7.5,3.4,6.3,4.6,5.4,5.5,3,3,5.022
12,Com1,70,7.4,3.7,6.2,4.9,5.3,5.8,2,2,6.014
12,Com1,71,7.5,3.3,6.4,4.4,5.4,5.4,3,2,4.146
12,Com1,73,7.3,3.5,6.3,4.5,5.4,5.4,3,2,7.665
12,Com1,76,7.5,3.5,6.5,4.5,5.4,5.6,2,1,6.174
12,Com2,77,6.6,4.2,5.6,5.2,4.5,6.3,1,3,7.186
12,Com1,78,7.3,3.6,6.3,4.6,5.4,5.5,2,2,7.295
12,Com2,80,6.6,4.6,5.7,5.5,4.7,6.5,2,1,12.175
12,Com1,81,7.3,3.5,6.4,4.4,5.4,5.4,3,1,2.191
12,Com2,82,6.5,4.5,5.4,5.6,4.5,6.5,3,1,3.585
12,Com3,85,5.5,5.5,4.4,6.6,3.5,7.5,3,1,12.736
12,Com1,86,7.5,3.4,6.3,4.6,5.4,5.5,3,2,3.007
12,Com3,87,5.4,5.4,4.4,6.4,3.3,7.5,3,2,4.113
12,Com3,89,5.4,5.6,4.3,6.7,3.4,7.6,2,2,3.04
12,Com1,92,7.5,3.5,6.5,4.5,5.4,5.6,3,1,3.519
12,Com3,93,5.6,5.4,4.7,6.3,3.5,7.5,3,3,2.528
12,Com2,96,6.5,4.4,5.4,5.5,4.4,6.5,3,2,7.629
12,Com3,97,5.3,5.8,4.2,6.9,3.4,7.7,2,3,2.111
12,Com2,98,6.4,4.7,5.5,5.6,4.5,6.6,1,1,3.342
12,Com2,99,6.5,4.4,5.5,5.4,4.4,6.5,2,2,3.264
12,Com1,100,7.4,3.5,6.5,4.4,5.4,5.5,1,1,2.338
12,Com3,102,5.6,5.5,4.6,6.5,3.5,7.6,3,3,3.615
12,Com3,104,5.7,5.2,4.8,6.1,3.7,7.2,1,3,2.816
12,Com1,105,7.6,3.5,6.6,4.5,5.6,5.5,1,3,8.766
12,Com2,106,6.5,4.6,5.6,5.5,4.7,6.4,3,1,4.19
12,Com2,112,6.5,4.5,5.5,5.5,4.5,6.5,2,2,2.0
12,Com3,113,5.6,5.5,4.7,6.4,3.5,7.6,3,2,2.99
12,Com3,114,5.5,5.6,4.6,6.5,3.6,7.5,1,1,2.143
12,Com2,115,6.3,4.5,5.4,5.4,4.5,6.3,2,2,2.339
12,Com1,116,7.7,3.4,6.5,4.6,5.6,5.5,3,1,3.022
12,Com1,117,7.4,3.6,6.4,4.6,5.4,5.6,1,1,2.93
12,Com3,120,5.5,5.4,4.4,6.5,3.4,7.5,2,1,2.447
12,Com1,121,7.2,3.7,6.2,4.7,5.3,5.6,1,1,1.983
12,Com3,124,5.4,5.4,4.4,6.4,3.5,7.3,2,3,3.809
12,Com1,127,7.4,3.6,6.6,4.4,5.5,5.5,1,1,2.096
12,Com2,128,6.6,4.5,5.6,5.5,4.5,6.6,2,1,3.406
12,Com1,129,7.4,3.4,6.3,4.5,5.4,5.4,1,1,3.902
12,Com1,132,7.7,3.1,6.5,4.3,5.6,5.2,2,2,4.112
12,Com2,133,6.2,4.7,5.3,5.6,4.2,6.7,1,2,2.56
12,Com3,135,5.4,5.4,4.5,6.3,3.3,7.5,1,1,2.738
12,Com1,137,7.5,3.4,6.4,4.5,5.4,5.5,1,2,3.168
12,Com1,142,7.7,3.4,6.6,4.5,5.6,5.5,1,3,2.883
12,Com2,145,6.5,4.5,5.4,5.6,4.3,6.7,2,3,3.921
12,Com1,146,7.4,3.8,6.6,4.6,5.5,5.7,2,3,6.243
12,Com1,147,7.8,3.7,6.6,4.9,5.7,5.8,2,1,7.458
12,Com3,150,5.4,5.5,4.5,6.4,3.3,7.6,3,1,2.928
12,Com1,152,7.6,3.4,6.5,4.5,5.5,5.5,3,2,6.656
12,Com3,157,5.5,5.7,4.6,6.6,3.5,7.7,3,2,3.47
12,Com1,158,7.6,3.5,6.7,4.4,5.6,5.5,1,3,9.647
12,Com2,161,6.6,4.4,5.5,5.5,4.4,6.6,1,2,4.48
12,Com2,162,6.5,4.6,5.6,5.5,4.7,6.4,3,2,7.005
12,Com3,163,5.4,5.6,4.5,6.5,3.4,7.6,1,1,2.256
12,Com3,164,5.5,5.6,4.5,6.6,3.5,7.6,2,1,1.63
12,Com1,166,7.6,3.5,6.5,4.6,5.6,5.5,2,3,3.902
12,Com1,167,7.6,3.4,6.6,4.4,5.6,5.4,1,3,1.502
12,Com3,168,5.4,5.5,4.4,6.5,3.4,7.5,3,1,1.661
12,Com2,169,6.5,4.3,5.6,5.2,4.5,6.3,2,1,4.463
12,Com2,170,6.3,4.6,5.4,5.5,4.3,6.6,3,2,4.72
12,Com1,171,7.6,3.5,6.4,4.7,5.5,5.6,1,3,5.055
12,Com1,173,7.6,3.2,6.6,4.2,5.6,5.2,3,3,3.375
12,Com3,174,5.6,5.2,4.5,6.3,3.6,7.2,2,1,1.744
12,Com1,177,7.6,3.5,6.5,4.6,5.5,5.6,1,1,2.03
12,Com3,178,5.6,5.3,4.7,6.2,3.6,7.3,2,1,3.344
12,Com3,180,5.5,5.4,4.4,6.5,3.4,7.5,3,1,8.354
12,Com2,181,6.4,4.3,5.3,5.4,4.4,6.3,1,1,2.509
12,Com2,184,6.4,4.4,5.4,5.4,4.4,6.4,3,2,2.274
12,Com2,186,6.5,4.6,5.5,5.6,4.5,6.6,1,2,3.378
12,Com2,187,6.4,4.7,5.5,5.6,4.5,6.6,2,2,1.583
12,Com3,189,5.6,5.5,4.5,6.6,3.6,7.5,2,1,2.687
12,Com1,190,7.6,3.5,6.4,4.7,5.5,5.6,2,1,1.823
12,Com3,198,5.4,5.5,4.3,6.6,3.4,7.5,3,1,2.465
12,Com2,201,6.3,4.5,5.4,5.4,4.4,6.4,2,2,1.758
12,Com2,202,6.2,4.9,5.3,5.8,4.2,6.9,2,2,3.775
12,Com2,206,6.6,4.4,5.6,5.4,4.7,6.3,3,2,2.958
12,Com3,208,5.3,5.6,4.2,6.7,3.4,7.5,1,1,2.926
12,Com1,209,7.5,3.5,6.6,4.4,5.6,5.4,2,1,1.6
12,Com1,212,7.4,3.3,6.4,4.3,5.3,5.4,1,1,2.497
12,Com3,213,5.6,5.2,4.5,6.3,3.5,7.3,1,1,7.473
12,Com1,217,7.5,3.5,6.6,4.4,5.5,5.5,3,3,3.135
12,Com2,218,6.4,4.4,5.4,5.4,4.5,6.3,2,2,1.647
12,Com3,219,5.3,5.4,4.4,6.3,3.4,7.3,1,3,12.993
12,Com3,222,5.5,5.6,4.5,6.6,3.5,7.6,1,1,3.887
12,Com2,225,6.6,4.5,5.5,5.6,4.5,6.6,3,2,4.879
12,Com2,226,6.6,4.6,5.5,5.7,4.6,6.6,3,2,3.326
12,Com1,227,7.7,3.5,6.6,4.6,5.7,5.5,2,1,4.688
12,Com3,228,5.1,5.4,4.0,6.5,3.1,7.4,2,1,10.912
12,Com2,230,6.7,4.4,5.6,5.5,4.5,6.6,3,1,3.713
12,Com3,234,5.7,5.5,4.7,6.5,3.8,7.4,2,1,1.807
12,Com3,236,5.4,5.5,4.3,6.6,3.3,7.6,2,1,1.808
12,Com3,237,5.4,5.5,4.4,6.5,3.4,7.5,3,1,3.474
12,Com2,238,6.4,4.7,5.5,5.6,4.6,6.5,1,2,1.712
13,Com1,2,7.5,3.6,6.6,4.5,5.5,5.6,3,3,37.235
13,Com3,3,5.6,5.3,4.7,6.2,3.6,7.3,1,2,16.659
13,Com2,6,6.3,4.5,5.4,5.4,4.4,6.4,1,2,19.123
13,Com3,7,5.5,5.5,4.5,6.5,3.4,7.6,2,2,9.666
13,Com1,11,7.5,3.4,6.4,4.5,5.4,5.5,3,2,12.147
13,Com2,13,6.4,4.4,5.4,5.4,4.5,6.3,1,1,19.444
13,Com1,14,7.5,3.3,6.4,4.4,5.4,5.4,2,3,34.146
13,Com3,15,5.4,5.6,4.3,6.7,3.4,7.6,2,2,10.834
13,Com3,16,5.5,5.7,4.6,6.6,3.5,7.7,2,1,11.957
13,Com3,18,5.5,5.4,4.4,6.5,3.4,7.5,3,2,9.396
13,Com3,20,5.5,5.5,4.4,6.6,3.5,7.5,1,1,11.28
13,Com3,21,5.4,5.4,4.5,6.3,3.3,7.5,2,1,13.955
13,Com1,24,7.8,3.1,6.8,4.1,5.7,5.2,2,2,11.349
13,Com3,25,5.6,5.2,4.5,6.3,3.5,7.3,1,2,24.479
13,Com1,27,7.4,3.5,6.5,4.4,5.5,5.4,2,3,10.574
13,Com1,28,7.6,3.4,6.5,4.5,5.5,5.5,2,3,7.108
13,Com2,30,6.8,4.1,5.7,5.2,4.8,6.1,1,2,15.137
13,Com2,35,6.5,4.4,5.5,5.4,4.4,6.5,1,2,9.538
13,Com2,37,6.6,4.6,5.7,5.5,4.7,6.5,2,2,18.031
13,Com2,38,6.4,4.7,5.5,5.6,4.5,6.6,3,3,9.875
13,Com1,39,7.6,3.5,6.5,4.6,5.5,5.6,2,3,13.107
13,Com3,46,5.4,5.5,4.4,6.5,3.4,7.5,2,1,18.336
13,Com2,47,6.5,4.3,5.6,5.2,4.5,6.3,1,3,17.521
13,Com3,48,5.5,5.6,4.5,6.6,3.5,7.6,1,1,10.145
13,Com3,49,5.6,5.5,4.7,6.4,3.5,7.6,3,1,10.685
13,Com1,50,7.7,3.5,6.6,4.6,5.7,5.5,2,3,12.447
13,Com3,51,5.5,5.4,4.4,6.5,3.4,7.5,3,2,23.441
13,Com2,52,6.6,4.5,5.5,5.6,4.5,6.6,1,2,6.959
13,Com2,54,6.4,4.7,5.5,5.6,4.5,6.6,2,1,7.887
13,Com3,55,5.6,5.2,4.5,6.3,3.6,7.2,2,1,5.888
13,Com2,60,6.5,4.5,5.5,5.5,4.5,6.5,1,2,4.451
13,Com2,62,6.5,4.5,5.4,5.6,4.5,6.5,1,2,5.83
13,Com1,63,7.6,3.3,6.5,4.4,5.6,5.3,2,3,7.873
13,Com2,64,6.4,4.3,5.3,5.4,4.4,6.3,3,2,11.169
13,Com1,66,7.3,3.6,6.3,4.6,5.4,5.5,3,3,4.591
13,Com3,67,5.5,5.6,4.5,6.6,3.5,7.6,3,1,5.534
13,Com3,68,5.4,5.6,4.3,6.7,3.4,7.6,1,1,8.061
13,Com2,71,6.3,4.6,5.4,5.5,4.5,6.4,2,2,9.344
13,Com1,73,7.4,3.4,6.3,4.5,5.4,5.4,3,3,7.762
13,Com2,74,6.6,4.5,5.6,5.5,4.6,6.5,2,2,9.87
13,Com2,75,6.2,4.9,5.3,5.8,4.2,6.9,2,2,9.279
13,Com3,76,5.3,5.8,4.2,6.9,3.4,7.7,2,1,5.055
13,Com1,87,7.8,3.7,6.6,4.9,5.7,5.8,3,3,12.655
13,Com3,90,5.7,5.5,4.7,6.5,3.8,7.4,2,1,9.327
13,Com2,91,6.6,4.9,5.7,5.8,4.6,6.9,1,2,4.576
13,Com2,92,6.4,4.5,5.4,5.5,4.3,6.6,1,2,4.305
13,Com3,95,5.4,5.4,4.4,6.4,3.5,7.3,2,1,6.08
13,Com2,99,6.5,4.6,5.5,5.6,4.5,6.6,1,2,4.656
13,Com2,100,6.7,4.4,5.6,5.5,4.5,6.6,2,2,3.616
13,Com1,103,7.6,3.5,6.6,4.5,5.6,5.5,1,3,10.448
13,Com2,104,6.2,4.7,5.3,5.6,4.2,6.7,2,2,7.485
13,Com2,105,6.4,4.7,5.5,5.6,4.6,6.5,3,2,8.831
13,Com2,106,6.6,4.4,5.5,5.5,4.4,6.6,3,2,4.69
13,Com1,107,7.4,3.6,6.4,4.6,5.4,5.6,3,3,5.587
13,Com3,112,5.4,5.5,4.4,6.5,3.4,7.5,1,1,4.529
13,Com1,116,7.4,3.8,6.6,4.6,5.5,5.7,2,3,5.503
13,Com3,119,5.6,5.5,4.5,6.6,3.6,7.5,1,1,4.718
13,Com3,124,5.4,5.4,4.4,6.4,3.3,7.5,1,1,4.318
13,Com2,128,6.6,4.2,5.6,5.2,4.5,6.3,3,2,12.623
13,Com2,134,6.4,4.6,5.4,5.6,4.3,6.7,1,2,15.647
13,Com2,135,6.6,4.4,5.6,5.4,4.7,6.3,1,2,11.297
13,Com3,136,5.4,5.6,4.5,6.5,3.4,7.6,3,1,4.637
13,Com2,137,6.5,4.6,5.6,5.5,4.7,6.4,3,2,13.983
13,Com1,140,7.4,3.5,6.5,4.4,5.4,5.5,1,3,6.526
13,Com1,141,7.7,3.4,6.6,4.5,5.6,5.5,1,3,6.113
13,Com2,146,6.6,4.4,5.6,5.4,4.7,6.3,1,2,8.162
13,Com1,147,7.7,3.4,6.5,4.6,5.6,5.5,3,3,4.191
13,Com3,151,5.5,5.5,4.6,6.4,3.4,7.6,2,1,4.017
13,Com2,152,6.3,4.6,5.4,5.5,4.4,6.5,2,2,5.15
13,Com2,153,6.5,4.5,5.4,5.6,4.3,6.7,2,2,4.401
13,Com1,156,7.3,3.5,6.4,4.4,5.4,5.4,1,3,4.432
13,Com2,157,6.6,4.6,5.5,5.7,4.6,6.6,2,2,3.359
13,Com1,158,7.7,3.1,6.5,4.3,5.6,5.2,3,3,5.489
13,Com1,159,7.6,3.2,6.6,4.2,5.6,5.2,3,3,5.024
13,Com1,160,7.4,3.3,6.4,4.3,5.3,5.4,2,3,8.578
13,Com3,161,5.6,5.5,4.5,6.6,3.5,7.6,1,1,8.143
13,Com1,162,7.6,3.3,6.5,4.4,5.5,5.4,2,3,7.087
13,Com2,164,6.6,4.5,5.6,5.5,4.5,6.6,3,2,5.808
13,Com2,167,6.5,4.4,5.5,5.4,4.4,6.5,3,2,3.935
13,Com3,168,5.3,5.6,4.2,6.7,3.4,7.5,1,1,8.063
13,Com2,169,6.5,4.4,5.4,5.5,4.4,6.5,3,2,3.809
13,Com2,170,6.5,4.4,5.6,5.3,4.7,6.2,2,2,7.006
13,Com3,171,5.4,5.5,4.3,6.6,3.3,7.6,3,1,5.07
13,Com1,172,7.5,3.4,6.3,4.6,5.4,5.5,1,3,8.56
13,Com3,174,5.4,5.4,4.5,6.3,3.4,7.4,2,1,3.885
13,Com1,175,7.3,3.5,6.3,4.5,5.4,5.4,2,3,4.687
13,Com3,177,5.5,5.6,4.5,6.6,3.5,7.6,2,1,7.774
13,Com3,179,5.7,5.8,4.6,6.9,3.6,7.9,2,2,12.013
13,Com3,180,5.6,5.5,4.7,6.4,3.6,7.5,3,1,9.12
13,Com1,183,7.6,3.5,6.7,4.4,5.6,5.5,2,3,6.239
13,Com3,185,5.4,5.5,4.3,6.6,3.4,7.5,2,1,4.417
13,Com1,186,7.5,3.5,6.6,4.4,5.5,5.5,2,3,3.662
13,Com1,188,7.2,3.7,6.2,4.7,5.3,5.6,3,3,8.912
13,Com1,190,7.5,3.5,6.6,4.4,5.6,5.4,2,3,5.119
13,Com3,191,5.5,5.6,4.5,6.6,3.5,7.6,1,1,6.0
13,Com1,194,7.6,3.5,6.5,4.6,5.6,5.5,1,3,4.303
13,Com1,196,7.5,3.5,6.5,4.5,5.4,5.6,1,3,6.879
13,Com3,197,5.5,5.6,4.6,6.5,3.6,7.5,3,1,8.785
13,Com1,200,7.6,3.5,6.4,4.7,5.5,5.6,1,3,10.543
13,Com3,201,5.6,5.5,4.6,6.5,3.5,7.6,2,1,8.224
13,Com2,202,6.2,4.3,5.1,5.4,4.0,6.5,1,2,5.359
13,Com2,203,6.6,4.4,5.5,5.5,4.6,6.4,2,2,6.913
13,Com2,204,6.4,4.4,5.4,5.4,4.4,6.4,3,2,3.984
13,Com1,205,7.0,3.5,6.2,4.3,5.1,5.4,1,3,8.111
13,Com3,206,5.6,5.4,4.7,6.3,3.6,7.4,3,1,9.086
13,Com1,207,7.6,3.4,6.6,4.4,5.6,5.4,3,3,10.48
13,Com1,211,7.4,3.6,6.6,4.4,5.5,5.5,3,3,8.385
13,Com2,213,6.3,4.5,5.4,5.4,4.5,6.3,2,2,5.55
13,Com1,218,7.6,3.5,6.4,4.7,5.5,5.6,1,3,6.624
13,Com2,219,6.3,4.6,5.4,5.5,4.3,6.6,3,2,8.032
13,Com1,220,7.4,3.7,6.2,4.9,5.3,5.8,1,2,8.224
13,Com3,224,5.3,5.4,4.4,6.3,3.4,7.3,1,1,3.952
13,Com3,226,5.6,5.4,4.7,6.3,3.5,7.5,2,1,6.96
13,Com1,227,7.5,3.6,6.4,4.7,5.5,5.6,3,3,5.312
13,Com1,230,7.5,3.4,6.3,4.6,5.4,5.5,3,3,13.808
13,Com3,232,5.7,5.2,4.8,6.1,3.7,7.2,1,2,11.583
13,Com3,233,5.1,5.4,4.0,6.5,3.1,7.4,1,1,6.479
13,Com1,235,7.5,3.5,6.5,4.5,5.4,5.6,3,3,5.28
13,Com2,236,6.5,4.6,5.6,5.5,4.7,6.4,3,2,10.192
13,Com3,239,5.4,5.5,4.5,6.4,3.3,7.6,1,1,3.298
14,Com2,1,6.4,4.4,5.4,5.4,4.4,6.4,1,1,73.43
14,Com3,3,5.5,5.5,4.5,6.5,3.4,7.6,3,3,17.14
14,Com2,4,6.5,4.6,5.6,5.5,4.7,6.4,2,1,39.188
14,Com3,5,5.3,5.6,4.2,6.7,3.4,7.5,1,1,22.804
14,Com1,8,7.5,3.4,6.3,4.6,5.4,5.5,1,1,27.268
14,Com2,9,6.5,4.3,5.6,5.2,4.5,6.3,1,2,34.018
14,Com2,11,6.6,4.2,5.6,5.2,4.5,6.3,1,2,24.852
14,Com1,12,7.4,3.5,6.5,4.4,5.5,5.4,2,3,3.489
14,Com1,18,7.8,3.7,6.6,4.9,5.7,5.8,1,3,12.003
14,Com2,22,6.5,4.6,5.6,5.5,4.7,6.4,3,2,9.81
14,Com2,23,6.6,4.4,5.6,5.4,4.7,6.3,2,1,10.931
14,Com3,24,5.7,5.8,4.6,6.9,3.6,7.9,3,2,7.363
14,Com1,27,7.7,3.4,6.5,4.6,5.6,5.5,3,3,4.4
14,Com1,28,7.5,3.4,6.3,4.6,5.4,5.5,2,3,2.992
14,Com3,32,5.6,5.4,4.7,6.3,3.5,7.5,2,1,4.129
14,Com1,33,7.7,3.5,6.6,4.6,5.7,5.5,2,3,4.305
14,Com2,35,6.4,4.7,5.5,5.6,4.6,6.5,1,2,7.439
14,Com3,36,5.5,5.6,4.5,6.6,3.5,7.6,1,1,1.553
14,Com2,40,6.2,4.7,5.3,5.6,4.2,6.7,3,2,2.91
14,Com1,42,7.3,3.5,6.3,4.5,5.4,5.4,1,3,1.457
14,Com2,47,6.3,4.6,5.4,5.5,4.5,6.4,3,2,4.13
14,Com2,53,6.3,4.6,5.4,5.5,4.4,6.5,3,2,3.648
14,Com3,55,5.4,5.6,4.3,6.7,3.4,7.6,3,1,11.761
14,Com3,57,5.6,5.4,4.7,6.3,3.6,7.4,3,1,5.392
14,Com2,58,6.4,4.7,5.5,5.6,4.5,6.6,2,2,4.624
14,Com1,59,7.4,3.8,6.6,4.6,5.5,5.7,2,2,7.502
14,Com2,61,6.6,4.6,5.5,5.7,4.6,6.6,1,2,7.583
14,Com2,62,6.3,4.6,5.4,5.5,4.3,6.6,1,2,6.967
14,Com3,66,5.4,5.4,4.5,6.3,3.3,7.5,3,1,4.238
14,Com1,72,7.5,3.5,6.5,4.5,5.4,5.6,1,3,5.343
14,Com3,73,5.5,5.6,4.5,6.6,3.5,7.6,1,1,4.353
14,Com1,74,7.4,3.6,6.4,4.6,5.4,5.6,3,3,3.264
14,Com2,75,6.3,4.5,5.4,5.4,4.4,6.4,3,2,2.64
14,Com2,77,6.4,4.5,5.4,5.5,4.3,6.6,1,2,4.786
14,Com3,78,5.4,5.4,4.4,6.4,3.3,7.5,3,1,2.207
14,Com1,83,7.4,3.4,6.3,4.5,5.4,5.4,1,3,2.111
14,Com3,84,5.4,5.6,4.3,6.7,3.4,7.6,3,1,2.657
14,Com3,86,5.5,5.5,4.4,6.6,3.5,7.5,1,1,2.03
14,Com2,88,6.4,4.4,5.4,5.4,4.5,6.3,1,2,2.381
14,Com1,89,7.6,3.4,6.5,4.5,5.5,5.5,1,3,2.336
14,Com2,90,6.6,4.4,5.6,5.4,4.7,6.3,1,2,3.614
14,Com1,93,7.5,3.5,6.6,4.4,5.5,5.5,3,3,1.918
14,Com3,94,5.6,5.5,4.6,6.5,3.5,7.6,2,1,2.543
14,Com3,95,5.3,5.4,4.4,6.3,3.4,7.3,2,1,3.727
14,Com3,97,5.3,5.8,4.2,6.9,3.4,7.7,1,1,3.345
14,Com2,100,6.5,4.4,5.5,5.4,4.4,6.5,2,2,2.64
14,Com1,101,7.3,3.5,6.4,4.4,5.4,5.4,3,3,1.679
14,Com3,104,5.6,5.2,4.5,6.3,3.6,7.2,1,1,3.517
14,Com3,106,5.5,5.6,4.5,6.6,3.5,7.6,1,1,1.92
14,Com1,107,7.4,3.6,6.6,4.4,5.5,5.5,2,3,2.344
14,Com2,108,6.8,4.1,5.7,5.2,4.8,6.1,1,2,15.342
14,Com3,111,5.5,5.4,4.4,6.5,3.4,7.5,1,1,3.584
14,Com3,112,5.4,5.6,4.5,6.5,3.4,7.6,1,1,3.792
14,Com1,114,7.2,3.7,6.2,4.7,5.3,5.6,3,3,2.159
14,Com2,117,6.4,4.3,5.3,5.4,4.4,6.3,3,2,6.177
14,Com1,118,7.4,3.7,6.2,4.9,5.3,5.8,2,3,3.743
14,Com3,122,5.6,5.3,4.7,6.2,3.6,7.3,1,1,5.798
14,Com1,123,7.5,3.5,6.5,4.5,5.4,5.6,3,3,2.383
14,Com3,126,5.5,5.6,4.6,6.5,3.6,7.5,2,1,1.598
14,Com3,130,5.6,5.5,4.5,6.6,3.6,7.5,3,1,3.039
14,Com1,131,7.5,3.5,6.6,4.4,5.6,5.4,1,3,3.758
14,Com2,132,6.6,4.5,5.6,5.5,4.6,6.5,1,2,1.937
14,Com2,133,6.6,4.9,5.7,5.8,4.6,6.9,2,2,2.561
14,Com1,134,7.5,3.3,6.4,4.4,5.4,5.4,1,3,2.111
14,Com3,136,5.5,5.4,4.4,6.5,3.4,7.5,2,1,4.784
14,Com2,138,6.3,4.5,5.4,5.4,4.5,6.3,3,2,2.431
14,Com2,140,6.5,4.5,5.4,5.6,4.3,6.7,3,2,3.232
14,Com1,141,7.6,3.5,6.6,4.5,5.6,5.5,2,3,2.365
14,Com3,142,5.7,5.2,4.8,6.1,3.7,7.2,3,1,7.105
14,Com3,144,5.5,5.6,4.5,6.6,3.5,7.6,2,1,1.823
14,Com2,146,6.4,4.7,5.5,5.6,4.5,6.6,2,2,1.777
14,Com3,147,5.7,5.5,4.7,6.5,3.8,7.4,2,1,1.84
14,Com3,153,5.4,5.5,4.4,6.5,3.4,7.5,1,1,2.146
14,Com1,154,7.4,3.5,6.5,4.4,5.4,5.5,2,3,1.549
14,Com1,159,7.6,3.5,6.4,4.7,5.5,5.6,2,3,3.695
14,Com2,160,6.6,4.5,5.6,5.5,4.5,6.6,3,2,1.774
14,Com3,161,5.4,5.4,4.5,6.3,3.4,7.4,2,2,1.826
14,Com2,162,6.6,4.5,5.5,5.6,4.5,6.6,2,2,2.288
14,Com2,165,6.6,4.4,5.5,5.5,4.6,6.4,3,2,1.839
14,Com2,167,6.5,4.5,5.5,5.5,4.5,6.5,2,2,1.457
14,Com3,168,5.6,5.5,4.7,6.4,3.5,7.6,2,1,2.694
14,Com1,169,7.7,3.1,6.5,4.3,5.6,5.2,2,3,3.968
14,Com1,171,7.8,3.1,6.8,4.1,5.7,5.2,1,3,2.449
14,Com1,172,7.6,3.5,6.7,4.4,5.6,5.5,1,3,2.272
14,Com1,175,7.6,3.5,6.4,4.7,5.5,5.6,2,3,1.888
14,Com2,176,6.5,4.5,5.4,5.6,4.5,6.5,3,2,2.735
14,Com1,178,7.7,3.4,6.6,4.5,5.6,5.5,1,3,1.487
14,Com3,180,5.4,5.5,4.3,6.6,3.4,7.5,2,1,7.262
14,Com3,181,5.4,5.5,4.5,6.4,3.3,7.6,1,1,1.424
14,Com1,182,7.0,3.5,6.2,4.3,5.1,5.4,1,3,3.783
14,Com2,183,6.4,4.6,5.4,5.6,4.3,6.7,2,1,3.423
14,Com3,184,5.6,5.5,4.5,6.6,3.5,7.6,1,1,3.118
14,Com2,187,6.6,4.4,5.5,5.5,4.4,6.6,1,2,2.431
14,Com1,189,7.3,3.6,6.3,4.6,5.4,5.5,3,3,3.582
14,Com3,190,5.5,5.7,4.6,6.6,3.5,7.7,3,1,3.923
14,Com3,191,5.4,5.4,4.4,6.4,3.5,7.3,1,2,5.088
14,Com1,194,7.4,3.3,6.4,4.3,5.3,5.4,2,3,2.991
14,Com1,203,7.6,3.3,6.5,4.4,5.5,5.4,3,3,2.046
14,Com3,206,5.4,5.5,4.4,6.5,3.4,7.5,1,1,3.168
14,Com3,207,5.6,5.5,4.7,6.4,3.6,7.5,1,1,2.463
14,Com1,208,7.6,3.2,6.6,4.2,5.6,5.2,3,3,3.373
14,Com2,213,6.5,4.6,5.5,5.6,4.5,6.6,1,2,22.673
14,Com3,215,5.4,5.5,4.3,6.6,3.3,7.6,2,1,1.631
14,Com2,216,6.5,4.4,5.4,5.5,4.4,6.5,3,2,3.662
14,Com3,217,5.5,5.5,4.6,6.4,3.4,7.6,3,1,2.623
14,Com1,218,7.6,3.3,6.5,4.4,5.6,5.3,1,3,5.363
14,Com2,219,6.6,4.6,5.7,5.5,4.7,6.5,2,2,2.062
14,Com3,221,5.1,5.4,4.0,6.5,3.1,7.4,2,1,3.282
14,Com2,222,6.2,4.9,5.3,5.8,4.2,6.9,2,2,3.695
14,Com1,225,7.5,3.6,6.4,4.7,5.5,5.6,2,3,1.567
14,Com2,227,6.5,4.4,5.5,5.4,4.4,6.5,1,2,2.594
14,Com1,228,7.5,3.4,6.4,4.5,5.4,5.5,2,3,2.302
14,Com1,230,7.6,3.5,6.5,4.6,5.5,5.6,3,3,2.015
14,Com2,232,6.5,4.4,5.6,5.3,4.7,6.2,2,2,2.466
14,Com3,233,5.6,5.2,4.5,6.3,3.5,7.3,1,1,3.263
14,Com1,236,7.5,3.6,6.6,4.5,5.5,5.6,3,3,3.473
14,Com2,237,6.7,4.4,5.6,5.5,4.5,6.6,3,2,5.215
14,Com1,238,7.6,3.4,6.6,4.4,5.6,5.4,2,3,1.726
14,Com2,239,6.2,4.3,5.1,5.4,4.0,6.5,3,2,2.511
14,Com1,240,7.6,3.5,6.5,4.6,5.6,5.5,3,3,1.49
15,Com2,2,6.4,4.7,5.5,5.6,4.6,6.5,2,2,25.684
15,Com1,3,7.2,3.7,6.2,4.7,5.3,5.6,3,3,11.009
15,Com3,4,5.1,5.4,4.0,6.5,3.1,7.4,1,1,24.868
15,Com1,5,7.5,3.5,6.6,4.4,5.5,5.5,1,3,12.242
15,Com2,6,6.4,4.3,5.3,5.4,4.4,6.3,3,2,27.185
15,Com3,7,5.5,5.6,4.5,6.6,3.5,7.6,2,3,25.249
15,Com2,9,6.5,4.5,5.4,5.6,4.5,6.5,3,2,8.002
15,Com2,11,6.5,4.5,5.4,5.6,4.3,6.7,1,2,12.753
15,Com3,14,5.6,5.5,4.5,6.6,3.5,7.6,2,1,5.363
15,Com1,15,7.8,3.7,6.6,4.9,5.7,5.8,2,1,6.593
15,Com3,18,5.3,5.8,4.2,6.9,3.4,7.7,2,3,15.411
15,Com3,21,5.5,5.6,4.5,6.6,3.5,7.6,1,1,6.274
15,Com1,26,7.6,3.5,6.7,4.4,5.6,5.5,3,3,6.254
15,Com1,30,7.6,3.2,6.6,4.2,5.6,5.2,3,3,24.413
15,Com2,34,6.4,4.7,5.5,5.6,4.5,6.6,1,2,12.895
15,Com3,36,5.5,5.6,4.5,6.6,3.5,7.6,1,1,21.408
15,Com1,39,7.6,3.5,6.5,4.6,5.5,5.6,1,3,13.89
15,Com2,41,6.2,4.3,5.1,5.4,4.0,6.5,2,2,11.263
15,Com1,43,7.3,3.5,6.4,4.4,5.4,5.4,1,3,12.24
15,Com3,44,5.3,5.6,4.2,6.7,3.4,7.5,1,3,5.293
15,Com1,45,7.4,3.8,6.6,4.6,5.5,5.7,3,3,4.928
15,Com1,47,7.3,3.5,6.3,4.5,5.4,5.4,1,3,10.898
15,Com3,50,5.4,5.4,4.5,6.3,3.3,7.5,1,1,3.951
15,Com3,51,5.7,5.8,4.6,6.9,3.6,7.9,1,2,10.206
15,Com3,52,5.7,5.5,4.7,6.5,3.8,7.4,3,1,8.353
15,Com1,55,7.6,3.3,6.5,4.4,5.6,5.3,3,3,18.832
15,Com1,57,7.4,3.6,6.6,4.4,5.5,5.5,3,2,3.617
15,Com1,60,7.5,3.3,6.4,4.4,5.4,5.4,1,3,4.079
15,Com2,62,6.6,4.4,5.5,5.5,4.6,6.4,1,3,12.807
15,Com1,64,7.5,3.4,6.4,4.5,5.4,5.5,3,3,5.439
15,Com3,66,5.5,5.6,4.6,6.5,3.6,7.5,3,1,5.181
15,Com2,67,6.5,4.4,5.5,5.4,4.4,6.5,2,2,3.441
15,Com3,68,5.6,5.5,4.7,6.4,3.5,7.6,2,1,3.935
15,Com3,69,5.4,5.4,4.4,6.4,3.5,7.3,1,2,3.202
15,Com3,71,5.4,5.4,4.4,6.4,3.3,7.5,2,1,3.746
15,Com2,72,6.5,4.5,5.5,5.5,4.5,6.5,3,2,7.617
15,Com3,74,5.4,5.5,4.4,6.5,3.4,7.5,3,1,2.544
15,Com1,76,7.5,3.5,6.5,4.5,5.4,5.6,2,3,3.504
15,Com2,78,6.3,4.6,5.4,5.5,4.4,6.5,1,2,2.883
15,Com3,80,5.6,5.5,4.7,6.4,3.6,7.5,1,1,5.136
15,Com2,81,6.4,4.7,5.5,5.6,4.5,6.6,1,2,5.408
15,Com2,82,6.6,4.5,5.5,5.6,4.5,6.6,1,2,2.99
15,Com3,85,5.5,5.4,4.4,6.5,3.4,7.5,3,1,5.249
15,Com2,90,6.8,4.1,5.7,5.2,4.8,6.1,2,2,2.847
15,Com1,91,7.4,3.5,6.5,4.4,5.4,5.5,1,3,5.935
15,Com3,93,5.6,5.4,4.7,6.3,3.6,7.4,2,1,3.823
15,Com1,95,7.5,3.4,6.3,4.6,5.4,5.5,2,3,4.238
15,Com1,99,7.4,3.4,6.3,4.5,5.4,5.4,3,3,6.207
15,Com2,100,6.3,4.6,5.4,5.5,4.5,6.4,3,2,4.815
15,Com3,101,5.5,5.5,4.5,6.5,3.4,7.6,2,1,2.256
15,Com1,104,7.6,3.3,6.5,4.4,5.5,5.4,1,3,4.637
15,Com3,105,5.6,5.2,4.5,6.3,3.5,7.3,2,1,3.743
15,Com2,106,6.2,4.9,5.3,5.8,4.2,6.9,3,2,10.623
15,Com2,108,6.3,4.6,5.4,5.5,4.3,6.6,1,2,3.011
15,Com1,109,7.5,3.5,6.6,4.4,5.6,5.4,3,3,4.046
15,Com3,110,5.6,5.4,4.7,6.3,3.5,7.5,2,1,4.655
15,Com2,113,6.4,4.5,5.4,5.5,4.3,6.6,3,2,3.457
15,Com2,117,6.5,4.4,5.6,5.3,4.7,6.2,2,2,5.491
15,Com1,118,7.8,3.1,6.8,4.1,5.7,5.2,3,3,3.133
15,Com2,120,6.6,4.4,5.6,5.4,4.7,6.3,1,2,2.928
15,Com1,121,7.4,3.6,6.4,4.6,5.4,5.6,3,3,2.786
15,Com3,122,5.5,5.7,4.6,6.6,3.5,7.7,3,1,6.023
15,Com2,123,6.3,4.5,5.4,5.4,4.5,6.3,3,2,3.456
15,Com3,126,5.4,5.5,4.3,6.6,3.3,7.6,1,1,3.375
15,Com2,129,6.4,4.6,5.4,5.6,4.3,6.7,3,2,7.105
15,Com3,133,5.4,5.6,4.5,6.5,3.4,7.6,3,1,2.542
15,Com3,134,5.4,5.5,4.5,6.4,3.3,7.6,3,1,2.753
15,Com1,135,7.6,3.5,6.5,4.6,5.6,5.5,3,3,3.65
15,Com3,139,5.6,5.3,4.7,6.2,3.6,7.3,1,1,8.046
15,Com2,140,6.6,4.5,5.6,5.5,4.5,6.6,3,2,2.626
15,Com2,141,6.5,4.3,5.6,5.2,4.5,6.3,2,2,2.431
15,Com2,142,6.5,4.6,5.6,5.5,4.7,6.4,2,2,2.56
15,Com1,148,7.6,3.5,6.6,4.5,5.6,5.5,2,3,3.057
15,Com1,150,7.5,3.5,6.5,4.5,5.4,5.6,3,3,2.064
15,Com2,151,6.6,4.9,5.7,5.8,4.6,6.9,1,2,2.498
15,Com1,152,7.4,3.3,6.4,4.3,5.3,5.4,2,3,2.335
15,Com1,153,7.6,3.4,6.6,4.4,5.6,5.4,2,3,3.328
15,Com2,154,6.6,4.5,5.6,5.5,4.6,6.5,3,2,2.864
15,Com1,158,7.5,3.6,6.4,4.7,5.5,5.6,1,3,3.775
15,Com2,160,6.5,4.4,5.4,5.5,4.4,6.5,1,2,5.697
15,Com3,162,5.7,5.2,4.8,6.1,3.7,7.2,1,1,2.849
15,Com1,163,7.6,3.5,6.4,4.7,5.5,5.6,2,3,2.753
15,Com2,164,6.7,4.4,5.6,5.5,4.5,6.6,1,2,2.862
15,Com3,165,5.6,5.5,4.5,6.6,3.6,7.5,1,1,3.028
15,Com3,166,5.4,5.5,4.4,6.5,3.4,7.5,2,1,2.285
15,Com1,170,7.7,3.5,6.6,4.6,5.7,5.5,1,3,4.528
15,Com3,176,5.5,5.5,4.4,6.6,3.5,7.5,2,1,4.256
15,Com1,178,7.3,3.6,6.3,4.6,5.4,5.5,2,3,5.216
15,Com1,179,7.7,3.4,6.6,4.5,5.6,5.5,3,3,2.479
15,Com3,181,5.5,5.4,4.4,6.5,3.4,7.5,1,1,2.144
15,Com1,182,7.4,3.5,6.5,4.4,5.5,5.4,2,3,4.951
15,Com2,185,6.5,4.4,5.5,5.4,4.4,6.5,2,2,1.969
15,Com1,186,7.7,3.4,6.5,4.6,5.6,5.5,1,1,5.184
15,Com2,187,6.6,4.6,5.5,5.7,4.6,6.6,3,2,2.655
15,Com3,188,5.4,5.4,4.5,6.3,3.4,7.4,2,2,4.496
15,Com1,191,7.0,3.5,6.2,4.3,5.1,5.4,2,3,2.974
15,Com2,192,6.6,4.4,5.6,5.4,4.7,6.3,2,2,2.77
15,Com1,193,7.6,3.4,6.5,4.5,5.5,5.5,3,3,2.975
15,Com3,197,5.4,5.5,4.3,6.6,3.4,7.5,1,1,4.445
15,Com2,199,6.6,4.6,5.7,5.5,4.7,6.5,1,2,2.287
15,Com2,201,6.4,4.4,5.4,5.4,4.5,6.3,3,2,1.967
15,Com2,203,6.3,4.5,5.4,5.4,4.4,6.4,2,2,2.175
15,Com2,204,6.4,4.4,5.4,5.4,4.4,6.4,1,2,2.287
15,Com2,206,6.6,4.2,5.6,5.2,4.5,6.3,3,2,2.495
15,Com2,209,6.5,4.6,5.5,5.6,4.5,6.6,1,2,4.321
15,Com1,210,7.5,3.6,6.6,4.5,5.5,5.6,3,3,2.69
15,Com3,212,5.6,5.5,4.6,6.5,3.5,7.6,3,1,3.2
15,Com3,213,5.3,5.4,4.4,6.3,3.4,7.3,2,1,4.272
15,Com2,214,6.6,4.4,5.5,5.5,4.4,6.6,1,2,2.337
15,Com1,216,7.5,3.4,6.3,4.6,5.4,5.5,3,3,2.112
15,Com3,217,5.5,5.5,4.6,6.4,3.4,7.6,3,1,3.363
15,Com1,218,7.4,3.7,6.2,4.9,5.3,5.8,2,3,2.494
15,Com3,220,5.6,5.2,4.5,6.3,3.6,7.2,1,2,5.696
15,Com1,224,7.7,3.1,6.5,4.3,5.6,5.2,3,3,2.894
15,Com3,225,5.4,5.6,4.3,6.7,3.4,7.6,3,1,2.339
15,Com3,227,5.4,5.6,4.3,6.7,3.4,7.6,2,1,2.307
15,Com2,228,6.2,4.7,5.3,5.6,4.2,6.7,1,2,6.257
15,Com1,230,7.6,3.5,6.4,4.7,5.5,5.6,3,3,2.431
15,Com2,233,6.5,4.6,5.6,5.5,4.7,6.4,3,2,5.007
15,Com3,237,5.5,5.6,4.5,6.6,3.5,7.6,3,1,2.641
16,Com2,2,6.3,4.6,5.4,5.5,4.5,6.4,2,1,26.019
16,Com2,6,6.4,4.3,5.3,5.4,4.4,6.3,2,1,13.874
16,Com3,7,5.6,5.3,4.7,6.2,3.6,7.3,3,3,7.891
16,Com3,10,5.4,5.4,4.5,6.3,3.4,7.4,2,2,11.123
16,Com2,11,6.4,4.4,5.4,5.4,4.4,6.4,1,3,16.305
16,Com1,13,7.5,3.6,6.4,4.7,5.5,5.6,2,2,13.537
16,Com1,15,7.4,3.8,6.6,4.6,5.5,5.7,2,2,7.123
16,Com2,16,6.4,4.4,5.4,5.4,4.5,6.3,2,3,8.116
16,Com2,17,6.5,4.4,5.5,5.4,4.4,6.5,3,1,6.672
16,Com2,22,6.3,4.6,5.4,5.5,4.4,6.5,2,1,5.281
16,Com2,23,6.5,4.4,5.4,5.5,4.4,6.5,2,3,5.041
16,Com1,25,7.6,3.5,6.4,4.7,5.5,5.6,2,2,7.693
16,Com1,26,7.3,3.5,6.4,4.4,5.4,5.4,3,2,7.089
16,Com3,28,5.6,5.5,4.7,6.4,3.5,7.6,1,2,6.927
16,Com2,29,6.4,4.7,5.5,5.6,4.5,6.6,2,1,4.239
16,Com2,30,6.5,4.5,5.5,5.5,4.5,6.5,1,2,7.038
16,Com1,32,7.5,3.5,6.6,4.4,5.6,5.4,3,2,5.022
16,Com3,33,5.4,5.5,4.4,6.5,3.4,7.5,3,2,4.096
16,Com1,35,7.8,3.1,6.8,4.1,5.7,5.2,3,2,6.273
16,Com2,36,6.6,4.9,5.7,5.8,4.6,6.9,1,1,6.287
16,Com1,39,7.8,3.7,6.6,4.9,5.7,5.8,1,2,3.537
16,Com3,41,5.5,5.6,4.5,6.6,3.5,7.6,3,2,7.519
16,Com1,42,7.5,3.3,6.4,4.4,5.4,5.4,1,2,4.496
16,Com3,43,5.6,5.4,4.7,6.3,3.6,7.4,2,2,7.728
16,Com1,45,7.4,3.6,6.6,4.4,5.5,5.5,1,2,4.43
16,Com3,48,5.5,5.5,4.4,6.6,3.5,7.5,2,2,4.625
16,Com1,50,7.6,3.3,6.5,4.4,5.5,5.4,1,2,5.647
16,Com1,51,7.5,3.4,6.3,4.6,5.4,5.5,2,2,20.258
16,Com1,52,7.3,3.5,6.3,4.5,5.4,5.4,1,2,9.679
16,Com3,53,5.6,5.5,4.6,6.5,3.5,7.6,1,2,4.958
16,Com2,55,6.3,4.6,5.4,5.5,4.3,6.6,1,1,8.464
16,Com1,57,7.5,3.4,6.3,4.6,5.4,5.5,2,2,7.776
16,Com1,62,7.6,3.5,6.4,4.7,5.5,5.6,1,2,7.687
16,Com2,63,6.5,4.4,5.5,5.4,4.4,6.5,3,2,6.27
16,Com1,64,7.6,3.3,6.5,4.4,5.6,5.3,1,2,3.758
16,Com3,66,5.6,5.5,4.7,6.4,3.6,7.5,2,2,2.865
16,Com1,67,7.4,3.5,6.5,4.4,5.5,5.4,3,2,2.879
16,Com1,69,7.4,3.4,6.3,4.5,5.4,5.4,2,2,14.272
16,Com1,70,7.0,3.5,6.2,4.3,5.1,5.4,2,2,18.208
16,Com1,71,7.5,3.5,6.5,4.5,5.4,5.6,2,2,1.601
16,Com1,72,7.6,3.5,6.6,4.5,5.6,5.5,3,2,3.28
16,Com3,74,5.4,5.4,4.4,6.4,3.3,7.5,2,2,3.071
16,Com2,75,6.3,4.5,5.4,5.4,4.4,6.4,2,1,4.27
16,Com2,76,6.5,4.6,5.6,5.5,4.7,6.4,2,1,5.857
16,Com3,78,5.5,5.5,4.6,6.4,3.4,7.6,3,2,4.53
16,Com1,79,7.3,3.6,6.3,4.6,5.4,5.5,2,2,6.399
16,Com2,81,6.5,4.6,5.5,5.6,4.5,6.6,2,2,6.801
16,Com3,84,5.5,5.5,4.5,6.5,3.4,7.6,2,2,6.099
16,Com3,85,5.5,5.4,4.4,6.5,3.4,7.5,2,2,3.743
16,Com3,89,5.4,5.6,4.5,6.5,3.4,7.6,3,2,2.402
16,Com2,90,6.6,4.5,5.6,5.5,4.5,6.6,3,2,8.544
16,Com2,91,6.6,4.4,5.6,5.4,4.7,6.3,2,3,7.092
16,Com1,93,7.7,3.1,6.5,4.3,5.6,5.2,1,2,7.199
16,Com1,95,7.7,3.4,6.6,4.5,5.6,5.5,3,2,8.976
16,Com1,98,7.4,3.7,6.2,4.9,5.3,5.8,2,2,6.014
16,Com3,99,5.7,5.5,4.7,6.5,3.8,7.4,1,2,6.543
16,Com2,101,6.3,4.5,5.4,5.4,4.5,6.3,1,2,12.384
16,Com2,102,6.4,4.7,5.5,5.6,4.5,6.6,2,1,10.879
16,Com2,106,6.2,4.9,5.3,5.8,4.2,6.9,2,1,15.251
16,Com3,109,5.5,5.6,4.5,6.6,3.5,7.6,1,2,9.137
16,Com1,110,7.4,3.6,6.4,4.6,5.4,5.6,2,2,7.536
16,Com3,111,5.6,5.2,4.5,6.3,3.5,7.3,1,2,3.28
16,Com3,115,5.4,5.6,4.3,6.7,3.4,7.6,2,2,7.889
16,Com3,117,5.4,5.6,4.3,6.7,3.4,7.6,1,2,8.098
16,Com1,125,7.6,3.4,6.6,4.4,5.6,5.4,1,2,5.409
16,Com2,128,6.4,4.5,5.4,5.5,4.3,6.6,3,2,5.537
16,Com2,129,6.5,4.6,5.6,5.5,4.7,6.4,1,2,6.143
16,Com2,130,6.6,4.4,5.5,5.5,4.6,6.4,1,1,6.366
16,Com2,133,6.6,4.4,5.5,5.5,4.4,6.6,2,2,2.704
16,Com3,134,5.4,5.4,4.4,6.4,3.5,7.3,1,2,4.752
16,Com3,135,5.6,5.5,4.5,6.6,3.6,7.5,1,2,4.528
16,Com1,136,7.4,3.3,6.4,4.3,5.3,5.4,2,2,5.681
16,Com3,137,5.4,5.5,4.3,6.6,3.3,7.6,2,2,2.862
16,Com1,139,7.7,3.4,6.5,4.6,5.6,5.5,3,2,10.382
16,Com3,141,5.4,5.5,4.4,6.5,3.4,7.5,1,2,9.554
16,Com2,142,6.6,4.6,5.5,5.7,4.6,6.6,1,2,5.872
16,Com2,146,6.5,4.3,5.6,5.2,4.5,6.3,1,2,4.048
16,Com2,147,6.6,4.5,5.5,5.6,4.5,6.6,2,2,4.927
16,Com1,148,7.4,3.5,6.5,4.4,5.4,5.5,2,2,8.671
16,Com2,149,6.6,4.5,5.6,5.5,4.6,6.5,2,2,4.449
16,Com2,150,6.7,4.4,5.6,5.5,4.5,6.6,1,2,5.92
16,Com1,151,7.5,3.4,6.4,4.5,5.4,5.5,2,2,5.565
16,Com3,152,5.5,5.4,4.4,6.5,3.4,7.5,1,2,11.042
16,Com2,153,6.5,4.5,5.4,5.6,4.5,6.5,1,2,6.461
16,Com3,155,5.4,5.5,4.5,6.4,3.3,7.6,1,2,4.591
16,Com1,158,7.6,3.5,6.7,4.4,5.6,5.5,2,2,5.342
16,Com2,159,6.6,4.4,5.6,5.4,4.7,6.3,2,3,7.12
16,Com3,160,5.5,5.6,4.6,6.5,3.6,7.5,1,2,11.297
16,Com3,163,5.7,5.2,4.8,6.1,3.7,7.2,3,2,6.495
16,Com2,164,6.4,4.7,5.5,5.6,4.6,6.5,1,2,12.766
16,Com3,166,5.3,5.8,4.2,6.9,3.4,7.7,3,2,14.289
16,Com3,167,5.6,5.4,4.7,6.3,3.5,7.5,2,2,6.959
16,Com3,169,5.6,5.2,4.5,6.3,3.6,7.2,2,2,7.616
16,Com1,170,7.6,3.4,6.5,4.5,5.5,5.5,1,3,4.061
16,Com2,175,6.4,4.6,5.4,5.6,4.3,6.7,3,2,11.425
16,Com1,177,7.6,3.5,6.5,4.6,5.6,5.5,3,2,4.239
16,Com3,181,5.1,5.4,4.0,6.5,3.1,7.4,3,2,16.673
16,Com3,186,5.5,5.6,4.5,6.6,3.5,7.6,3,2,6.942
16,Com2,189,6.6,4.6,5.7,5.5,4.7,6.5,3,2,4.141
16,Com2,193,6.5,4.4,5.6,5.3,4.7,6.2,2,2,4.144
16,Com3,194,5.4,5.5,4.3,6.6,3.4,7.5,2,2,8.816
16,Com3,197,5.5,5.6,4.5,6.6,3.5,7.6,1,2,12.24
16,Com3,200,5.4,5.4,4.5,6.3,3.3,7.5,1,2,4.255
16,Com1,201,7.2,3.7,6.2,4.7,5.3,5.6,3,2,8.913
16,Com1,204,7.7,3.5,6.6,4.6,5.7,5.5,1,2,10.16
16,Com2,208,6.6,4.2,5.6,5.2,4.5,6.3,2,2,6.272
16,Com3,212,5.3,5.6,4.2,6.7,3.4,7.5,1,2,7.359
16,Com1,213,7.5,3.6,6.6,4.5,5.5,5.6,2,2,4.11
16,Com3,214,5.6,5.5,4.5,6.6,3.5,7.6,3,2,4.478
16,Com1,217,7.6,3.2,6.6,4.2,5.6,5.2,1,2,8.944
16,Com2,220,6.2,4.7,5.3,5.6,4.2,6.7,2,2,9.856
16,Com3,221,5.7,5.8,4.6,6.9,3.6,7.9,3,2,5.328
16,Com2,223,6.2,4.3,5.1,5.4,4.0,6.5,3,3,7.602
16,Com1,224,7.5,3.5,6.5,4.5,5.4,5.6,3,2,4.272
16,Com2,226,6.8,4.1,5.7,5.2,4.8,6.1,3,2,5.52
16,Com1,228,7.5,3.5,6.6,4.4,5.5,5.5,1,2,8.0
16,Com3,232,5.3,5.4,4.4,6.3,3.4,7.3,3,2,6.847
16,Com2,236,6.5,4.5,5.4,5.6,4.3,6.7,1,1,9.805
16,Com3,237,5.5,5.7,4.6,6.6,3.5,7.7,1,2,2.785
16,Com1,238,7.6,3.5,6.5,4.6,5.5,5.6,3,2,3.36
17,Com2,2,6.5,4.5,5.5,5.5,4.5,6.5,3,2,26.306
17,Com2,3,6.4,4.5,5.4,5.5,4.3,6.6,3,1,29.427
17,Com1,4,7.7,3.1,6.5,4.3,5.6,5.2,1,2,9.14
17,Com2,5,6.5,4.5,5.4,5.6,4.3,6.7,3,3,20.419
17,Com2,7,6.2,4.3,5.1,5.4,4.0,6.5,2,3,15.265
17,Com1,9,7.8,3.7,6.6,4.9,5.7,5.8,1,3,24.98
17,Com3,13,5.5,5.7,4.6,6.6,3.5,7.7,1,1,10.725
17,Com1,15,7.5,3.3,6.4,4.4,5.4,5.4,3,3,11.653
17,Com3,18,5.7,5.2,4.8,6.1,3.7,7.2,3,2,14.899
17,Com3,19,5.5,5.6,4.5,6.6,3.5,7.6,2,1,4.051
17,Com2,20,6.8,4.1,5.7,5.2,4.8,6.1,3,1,11.985
17,Com3,21,5.5,5.5,4.5,6.5,3.4,7.6,2,1,6.212
17,Com3,25,5.4,5.5,4.3,6.6,3.3,7.6,1,1,7.393
17,Com1,26,7.4,3.6,6.6,4.4,5.5,5.5,1,3,5.501
17,Com1,28,7.6,3.3,6.5,4.4,5.6,5.3,1,3,4.191
17,Com3,30,5.4,5.5,4.3,6.6,3.4,7.5,2,1,5.263
17,Com2,33,6.2,4.7,5.3,5.6,4.2,6.7,1,3,4.878
17,Com2,35,6.6,4.6,5.7,5.5,4.7,6.5,2,1,17.327
17,Com2,36,6.4,4.6,5.4,5.6,4.3,6.7,2,1,6.738
17,Com3,37,5.5,5.4,4.4,6.5,3.4,7.5,2,1,3.41
17,Com1,39,7.7,3.5,6.6,4.6,5.7,5.5,1,2,4.752
17,Com2,45,6.6,4.6,5.5,5.7,4.6,6.6,2,2,7.807
17,Com3,47,5.4,5.6,4.5,6.5,3.4,7.6,1,3,15.31
17,Com3,48,5.6,5.2,4.5,6.3,3.6,7.2,2,1,7.551
17,Com3,49,5.5,5.6,4.5,6.6,3.5,7.6,3,3,5.808
17,Com2,51,6.6,4.5,5.6,5.5,4.6,6.5,2,1,7.677
17,Com3,53,5.3,5.8,4.2,6.9,3.4,7.7,2,2,5.469
17,Com1,55,7.7,3.4,6.5,4.6,5.6,5.5,1,1,7.954
17,Com3,57,5.4,5.6,4.3,6.7,3.4,7.6,2,1,6.881
17,Com1,59,7.6,3.5,6.5,4.6,5.6,5.5,3,2,15.393
17,Com2,60,6.4,4.4,5.4,5.4,4.4,6.4,1,2,9.343
17,Com1,61,7.4,3.5,6.5,4.4,5.4,5.5,1,1,7.23
17,Com2,62,6.6,4.4,5.6,5.4,4.7,6.3,1,1,7.463
17,Com1,63,7.5,3.4,6.3,4.6,5.4,5.5,2,1,3.486
17,Com3,64,5.3,5.6,4.2,6.7,3.4,7.5,1,3,3.278
17,Com3,67,5.7,5.5,4.7,6.5,3.8,7.4,2,2,6.752
17,Com2,69,6.4,4.7,5.5,5.6,4.5,6.6,2,2,9.041
17,Com1,70,7.5,3.5,6.5,4.5,5.4,5.6,3,1,7.843
17,Com1,71,7.6,3.5,6.4,4.7,5.5,5.6,3,1,6.317
17,Com2,74,6.6,4.4,5.5,5.5,4.4,6.6,3,2,4.0
17,Com1,77,7.0,3.5,6.2,4.3,5.1,5.4,3,1,9.858
17,Com2,80,6.5,4.4,5.6,5.3,4.7,6.2,3,1,10.607
17,Com1,81,7.3,3.6,6.3,4.6,5.4,5.5,3,1,8.944
17,Com1,84,7.7,3.4,6.6,4.5,5.6,5.5,2,1,4.431
17,Com3,85,5.4,5.4,4.5,6.3,3.3,7.5,2,3,8.178
17,Com3,87,5.4,5.5,4.4,6.5,3.4,7.5,2,2,8.588
17,Com1,88,7.6,3.4,6.5,4.5,5.5,5.5,3,1,8.161
17,Com2,89,6.3,4.5,5.4,5.4,4.4,6.4,2,3,6.783
17,Com1,92,7.5,3.5,6.6,4.4,5.6,5.4,2,1,3.024
17,Com1,95,7.5,3.4,6.3,4.6,5.4,5.5,3,1,6.319
17,Com1,96,7.4,3.7,6.2,4.9,5.3,5.8,2,1,13.409
17,Com3,97,5.4,5.4,4.4,6.4,3.3,7.5,1,2,8.657
17,Com3,98,5.7,5.8,4.6,6.9,3.6,7.9,1,3,9.278
17,Com3,100,5.6,5.2,4.5,6.3,3.5,7.3,3,3,6.591
17,Com2,101,6.6,4.4,5.5,5.5,4.6,6.4,1,1,10.4
17,Com1,106,7.5,3.6,6.6,4.5,5.5,5.6,2,2,5.374
17,Com2,108,6.5,4.6,5.6,5.5,4.7,6.4,2,1,5.35
17,Com1,109,7.6,3.5,6.4,4.7,5.5,5.6,3,1,3.313
17,Com3,111,5.5,5.5,4.6,6.4,3.4,7.6,2,3,4.065
17,Com2,114,6.6,4.5,5.6,5.5,4.5,6.6,3,1,7.057
17,Com2,121,6.4,4.7,5.5,5.6,4.6,6.5,1,3,7.231
17,Com2,124,6.5,4.4,5.5,5.4,4.4,6.5,1,1,5.037
17,Com3,125,5.4,5.4,4.4,6.4,3.5,7.3,2,3,3.872
17,Com3,127,5.3,5.4,4.4,6.3,3.4,7.3,2,3,4.192
17,Com1,134,7.3,3.5,6.3,4.5,5.4,5.4,1,1,2.319
17,Com1,139,7.6,3.4,6.6,4.4,5.6,5.4,3,1,3.618
17,Com2,141,6.6,4.9,5.7,5.8,4.6,6.9,1,3,5.471
17,Com1,145,7.4,3.3,6.4,4.3,5.3,5.4,3,1,4.146
17,Com2,146,6.3,4.6,5.4,5.5,4.4,6.5,3,3,5.342
17,Com3,147,5.6,5.5,4.5,6.6,3.6,7.5,1,3,4.017
17,Com2,149,6.2,4.9,5.3,5.8,4.2,6.9,3,3,6.114
17,Com3,150,5.5,5.6,4.5,6.6,3.5,7.6,3,3,3.407
17,Com3,151,5.6,5.5,4.7,6.4,3.5,7.6,2,3,5.088
17,Com1,152,7.5,3.4,6.4,4.5,5.4,5.5,1,1,3.823
17,Com1,155,7.6,3.5,6.6,4.5,5.6,5.5,1,1,3.696
17,Com1,156,7.5,3.6,6.4,4.7,5.5,5.6,3,1,3.246
17,Com3,157,5.6,5.4,4.7,6.3,3.5,7.5,2,3,2.799
17,Com3,159,5.4,5.5,4.5,6.4,3.3,7.6,2,3,3.536
17,Com3,161,5.5,5.6,4.5,6.6,3.5,7.6,2,3,5.967
17,Com1,162,7.6,3.2,6.6,4.2,5.6,5.2,1,1,2.076
17,Com3,164,5.6,5.5,4.5,6.6,3.5,7.6,2,3,4.385
17,Com2,168,6.4,4.7,5.5,5.6,4.5,6.6,1,3,7.453
17,Com3,169,5.5,5.5,4.4,6.6,3.5,7.5,2,3,2.447
17,Com2,173,6.6,4.5,5.5,5.6,4.5,6.6,1,1,5.874
17,Com2,175,6.6,4.2,5.6,5.2,4.5,6.3,3,1,6.416
17,Com3,179,5.4,5.4,4.5,6.3,3.4,7.4,1,3,3.645
17,Com1,184,7.6,3.5,6.7,4.4,5.6,5.5,3,1,2.047
17,Com2,186,6.3,4.6,5.4,5.5,4.3,6.6,3,3,6.672
17,Com2,187,6.5,4.5,5.4,5.6,4.5,6.5,2,1,4.543
17,Com1,188,7.6,3.5,6.5,4.6,5.5,5.6,1,1,1.537
17,Com2,190,6.7,4.4,5.6,5.5,4.5,6.6,3,1,8.269
17,Com3,195,5.6,5.5,4.6,6.5,3.5,7.6,3,3,3.808
17,Com2,197,6.5,4.4,5.5,5.4,4.4,6.5,1,1,3.425
17,Com2,200,6.6,4.4,5.6,5.4,4.7,6.3,3,1,5.07
17,Com3,202,5.6,5.4,4.7,6.3,3.6,7.4,3,3,2.77
17,Com2,204,6.5,4.6,5.5,5.6,4.5,6.6,3,3,6.816
17,Com2,208,6.5,4.6,5.6,5.5,4.7,6.4,3,1,3.519
17,Com1,209,7.4,3.4,6.3,4.5,5.4,5.4,1,1,1.791
17,Com2,210,6.3,4.6,5.4,5.5,4.5,6.4,1,3,4.961
17,Com3,213,5.4,5.6,4.3,6.7,3.4,7.6,3,3,2.897
17,Com1,214,7.4,3.8,6.6,4.6,5.5,5.7,1,1,4.191
17,Com1,215,7.5,3.5,6.6,4.4,5.5,5.5,3,1,1.824
17,Com2,216,6.5,4.4,5.4,5.5,4.4,6.5,1,1,3.073
17,Com2,217,6.4,4.3,5.3,5.4,4.4,6.3,3,1,6.001
17,Com3,218,5.6,5.5,4.7,6.4,3.6,7.5,3,3,3.807
17,Com2,219,6.4,4.4,5.4,5.4,4.5,6.3,2,1,5.378
17,Com1,220,7.4,3.5,6.5,4.4,5.5,5.4,3,1,1.438
17,Com1,222,7.3,3.5,6.4,4.4,5.4,5.4,1,1,2.24
17,Com3,223,5.1,5.4,4.0,6.5,3.1,7.4,2,3,5.826
17,Com3,225,5.4,5.5,4.4,6.5,3.4,7.5,3,3,3.583
17,Com1,226,7.5,3.5,6.5,4.5,5.4,5.6,2,1,2.513
17,Com3,227,5.5,5.4,4.4,6.5,3.4,7.5,3,3,2.608
17,Com2,228,6.5,4.3,5.6,5.2,4.5,6.3,3,1,4.751
17,Com1,230,7.2,3.7,6.2,4.7,5.3,5.6,1,1,5.441
17,Com2,231,6.3,4.5,5.4,5.4,4.5,6.3,2,3,8.273
17,Com3,234,5.5,5.6,4.6,6.5,3.6,7.5,3,3,5.312
17,Com3,235,5.6,5.3,4.7,6.2,3.6,7.3,1,3,2.591
17,Com1,237,7.4,3.6,6.4,4.6,5.4,5.6,3,1,2.047
17,Com1,239,7.6,3.3,6.5,4.4,5.5,5.4,3,1,2.077
17,Com1,240,7.8,3.1,6.8,4.1,5.7,5.2,2,1,5.488
18,Com1,1,7.6,3.5,6.7,4.4,5.6,5.5,3,2,16.007
18,Com2,5,6.6,4.5,5.5,5.6,4.5,6.6,2,2,16.628
18,Com3,8,5.6,5.5,4.7,6.4,3.6,7.5,1,1,11.217
18,Com1,9,7.5,3.5,6.6,4.4,5.5,5.5,1,3,9.843
18,Com1,10,7.4,3.6,6.4,4.6,5.4,5.6,3,3,14.26
18,Com2,11,6.6,4.4,5.6,5.4,4.7,6.3,2,1,14.322
18,Com1,12,7.6,3.3,6.5,4.4,5.5,5.4,3,2,9.538
18,Com1,13,7.4,3.8,6.6,4.6,5.5,5.7,2,1,9.443
18,Com1,15,7.6,3.2,6.6,4.2,5.6,5.2,1,3,9.523
18,Com3,16,5.5,5.7,4.6,6.6,3.5,7.7,1,1,2.194
18,Com1,17,7.5,3.4,6.3,4.6,5.4,5.5,1,3,3.011
18,Com2,20,6.5,4.4,5.4,5.5,4.4,6.5,3,2,3.333
18,Com3,21,5.5,5.5,4.5,6.5,3.4,7.6,3,1,1.986
18,Com2,22,6.3,4.5,5.4,5.4,4.5,6.3,2,2,2.644
18,Com2,23,6.6,4.6,5.5,5.7,4.6,6.6,1,2,3.89
18,Com3,25,5.6,5.2,4.5,6.3,3.6,7.2,1,1,6.256
18,Com1,27,7.5,3.5,6.6,4.4,5.6,5.4,2,3,3.088
18,Com2,28,6.4,4.5,5.4,5.5,4.3,6.6,3,2,2.257
18,Com3,29,5.5,5.6,4.5,6.6,3.5,7.6,1,1,2.771
18,Com1,30,7.7,3.4,6.5,4.6,5.6,5.5,1,3,2.371
18,Com2,31,6.6,4.4,5.6,5.4,4.7,6.3,1,2,3.087
18,Com2,36,6.4,4.4,5.4,5.4,4.5,6.3,1,2,1.662
18,Com2,45,6.5,4.5,5.4,5.6,4.5,6.5,1,2,4.179
18,Com1,46,7.4,3.3,6.4,4.3,5.3,5.4,1,3,6.05
18,Com3,50,5.5,5.6,4.5,6.6,3.5,7.6,2,1,8.45
18,Com1,51,7.6,3.4,6.6,4.4,5.6,5.4,3,3,3.954
18,Com3,52,5.7,5.2,4.8,6.1,3.7,7.2,1,1,2.991
18,Com2,53,6.5,4.6,5.5,5.6,4.5,6.6,2,2,1.889
18,Com3,54,5.3,5.4,4.4,6.3,3.4,7.3,1,1,2.047
18,Com1,55,7.8,3.7,6.6,4.9,5.7,5.8,2,3,10.064
18,Com1,56,7.6,3.3,6.5,4.4,5.6,5.3,2,3,12.272
18,Com3,61,5.1,5.4,4.0,6.5,3.1,7.4,3,1,5.731
18,Com3,62,5.4,5.5,4.4,6.5,3.4,7.5,2,1,4.311
18,Com2,63,6.5,4.3,5.6,5.2,4.5,6.3,1,2,7.344
18,Com1,65,7.5,3.6,6.6,4.5,5.5,5.6,3,3,3.953
18,Com2,66,6.4,4.6,5.4,5.6,4.3,6.7,1,2,4.718
18,Com1,67,7.3,3.5,6.4,4.4,5.4,5.4,2,3,2.497
18,Com1,69,7.0,3.5,6.2,4.3,5.1,5.4,1,3,5.84
18,Com3,70,5.6,5.3,4.7,6.2,3.6,7.3,2,1,26.705
18,Com1,71,7.6,3.5,6.4,4.7,5.5,5.6,3,3,4.865
18,Com3,72,5.4,5.4,4.4,6.4,3.5,7.3,1,1,3.281
18,Com3,75,5.3,5.8,4.2,6.9,3.4,7.7,3,1,6.003
18,Com1,76,7.2,3.7,6.2,4.7,5.3,5.6,1,3,3.583
18,Com1,81,7.5,3.5,6.5,4.5,5.4,5.6,2,3,4.207
18,Com2,85,6.6,4.4,5.5,5.5,4.6,6.4,3,2,3.616
18,Com2,86,6.5,4.6,5.6,5.5,4.7,6.4,2,2,1.631
18,Com3,87,5.4,5.5,4.5,6.4,3.3,7.6,2,1,4.563
18,Com1,88,7.4,3.6,6.6,4.4,5.5,5.5,3,3,2.751
18,Com3,90,5.4,5.6,4.3,6.7,3.4,7.6,3,1,3.422
18,Com2,94,6.5,4.5,5.4,5.6,4.3,6.7,1,2,7.826
18,Com2,95,6.2,4.9,5.3,5.8,4.2,6.9,3,2,8.032
18,Com3,97,5.4,5.5,4.4,6.5,3.4,7.5,1,1,3.795
18,Com3,100,5.4,5.5,4.3,6.6,3.3,7.6,2,1,0.85
18,Com2,101,6.2,4.7,5.3,5.6,4.2,6.7,2,2,1.511
18,Com2,104,6.5,4.4,5.6,5.3,4.7,6.2,3,2,2.307
18,Com1,107,7.6,3.5,6.5,4.6,5.6,5.5,2,3,1.662
18,Com1,109,7.6,3.4,6.5,4.5,5.5,5.5,2,3,1.905
18,Com1,116,7.4,3.5,6.5,4.4,5.5,5.4,1,3,1.474
18,Com3,124,5.6,5.4,4.7,6.3,3.6,7.4,3,1,4.516
18,Com3,129,5.4,5.4,4.5,6.3,3.3,7.5,3,1,2.989
18,Com3,130,5.6,5.4,4.7,6.3,3.5,7.5,3,1,4.527
18,Com2,131,6.4,4.7,5.5,5.6,4.6,6.5,3,2,2.834
18,Com2,132,6.5,4.4,5.5,5.4,4.4,6.5,2,2,2.257
18,Com2,133,6.3,4.5,5.4,5.4,4.4,6.4,1,2,1.297
18,Com3,136,5.4,5.5,4.3,6.6,3.4,7.5,1,1,2.769
18,Com2,139,6.4,4.7,5.5,5.6,4.5,6.6,1,2,1.905
18,Com3,140,5.5,5.6,4.6,6.5,3.6,7.5,2,1,2.802
18,Com3,142,5.6,5.5,4.6,6.5,3.5,7.6,1,1,2.178
18,Com3,144,5.6,5.5,4.7,6.4,3.5,7.6,3,1,3.441
18,Com3,145,5.6,5.5,4.5,6.6,3.5,7.6,3,1,6.049
18,Com1,147,7.4,3.7,6.2,4.9,5.3,5.8,3,3,3.362
18,Com2,148,6.4,4.7,5.5,5.6,4.5,6.6,2,2,1.794
18,Com2,150,6.6,4.9,5.7,5.8,4.6,6.9,1,2,1.439
18,Com3,151,5.6,5.5,4.5,6.6,3.6,7.5,2,1,1.624
18,Com3,152,5.4,5.6,4.5,6.5,3.4,7.6,2,1,1.679
18,Com3,154,5.5,5.6,4.5,6.6,3.5,7.6,3,1,5.474
18,Com2,156,6.6,4.6,5.7,5.5,4.7,6.5,2,2,1.584
18,Com3,157,5.5,5.4,4.4,6.5,3.4,7.5,3,1,1.728
18,Com1,158,7.7,3.1,6.5,4.3,5.6,5.2,3,3,7.603
18,Com3,165,5.5,5.6,4.5,6.6,3.5,7.6,3,1,2.622
18,Com1,166,7.3,3.6,6.3,4.6,5.4,5.5,2,3,2.608
18,Com2,167,6.2,4.3,5.1,5.4,4.0,6.5,3,2,3.938
18,Com2,168,6.3,4.6,5.4,5.5,4.3,6.6,1,2,3.056
18,Com1,173,7.7,3.5,6.6,4.6,5.7,5.5,3,3,2.772
18,Com2,174,6.6,4.5,5.6,5.5,4.5,6.6,3,2,1.727
18,Com2,175,6.5,4.6,5.6,5.5,4.7,6.4,3,2,1.457
18,Com2,176,6.4,4.3,5.3,5.4,4.4,6.3,3,1,1.063
18,Com3,179,5.5,5.5,4.4,6.6,3.5,7.5,1,1,1.76
18,Com1,180,7.6,3.5,6.4,4.7,5.5,5.6,1,3,4.929
18,Com2,183,6.6,4.4,5.5,5.5,4.4,6.6,1,2,1.571
18,Com3,185,5.7,5.5,4.7,6.5,3.8,7.4,2,1,1.585
18,Com1,187,7.6,3.5,6.6,4.5,5.6,5.5,2,3,2.224
18,Com2,188,6.5,4.4,5.5,5.4,4.4,6.5,1,2,2.371
18,Com2,189,6.3,4.6,5.4,5.5,4.4,6.5,1,2,1.474
18,Com2,191,6.4,4.4,5.4,5.4,4.4,6.4,1,1,1.014
18,Com3,194,5.3,5.6,4.2,6.7,3.4,7.5,2,1,3.634
18,Com3,195,5.7,5.8,4.6,6.9,3.6,7.9,1,1,4.177
18,Com3,198,5.6,5.2,4.5,6.3,3.5,7.3,3,3,4.402
18,Com2,205,6.7,4.4,5.6,5.5,4.5,6.6,1,2,2.543
18,Com3,206,5.5,5.5,4.6,6.4,3.4,7.6,1,1,1.074
18,Com1,207,7.5,3.3,6.4,4.4,5.4,5.4,2,3,1.462
18,Com3,208,5.4,5.6,4.3,6.7,3.4,7.6,2,1,1.927
18,Com1,210,7.4,3.5,6.5,4.4,5.4,5.5,1,3,2.706
18,Com2,211,6.6,4.2,5.6,5.2,4.5,6.3,3,2,1.984
18,Com1,212,7.5,3.4,6.4,4.5,5.4,5.5,3,3,4.338
18,Com1,213,7.4,3.4,6.3,4.5,5.4,5.4,1,3,5.105
18,Com1,214,7.5,3.4,6.3,4.6,5.4,5.5,3,3,2.323
18,Com1,215,7.3,3.5,6.3,4.5,5.4,5.4,3,3,1.649
18,Com2,221,6.3,4.6,5.4,5.5,4.5,6.4,1,2,2.275
18,Com1,224,7.5,3.6,6.4,4.7,5.5,5.6,2,3,3.697
18,Com1,225,7.7,3.4,6.6,4.5,5.6,5.5,1,1,5.921
18,Com2,226,6.5,4.5,5.5,5.5,4.5,6.5,3,2,1.295
18,Com2,230,6.8,4.1,5.7,5.2,4.8,6.1,3,2,3.655
18,Com3,231,5.4,5.4,4.5,6.3,3.4,7.4,3,1,2.961
18,Com3,232,5.4,5.4,4.4,6.4,3.3,7.5,1,1,1.727
18,Com1,233,7.5,3.5,6.5,4.5,5.4,5.6,1,3,2.786
18,Com1,234,7.8,3.1,6.8,4.1,5.7,5.2,3,3,2.832
18,Com1,236,7.6,3.5,6.5,4.6,5.5,5.6,2,3,1.921
18,Com2,238,6.6,4.5,5.6,5.5,4.6,6.5,3,2,1.558
18,Com3,240,5.5,5.4,4.4,6.5,3.4,7.5,3,1,2.927
19,Com3,1,5.3,5.6,4.2,6.7,3.4,7.5,2,1,25.671
19,Com3,2,5.4,5.5,4.3,6.6,3.4,7.5,1,3,49.524
19,Com1,3,7.3,3.5,6.4,4.4,5.4,5.4,1,1,9.378
19,Com3,4,5.4,5.4,4.5,6.3,3.4,7.4,1,3,2.514
19,Com3,5,5.5,5.4,4.4,6.5,3.4,7.5,2,3,2.162
19,Com3,6,5.3,5.4,4.4,6.3,3.4,7.3,3,3,2.77
19,Com3,8,5.4,5.5,4.4,6.5,3.4,7.5,2,3,1.842
19,Com1,9,7.5,3.6,6.6,4.5,5.5,5.6,3,1,2.275
19,Com1,10,7.0,3.5,6.2,4.3,5.1,5.4,3,1,3.218
19,Com2,12,6.2,4.7,5.3,5.6,4.2,6.7,1,3,2.833
19,Com2,13,6.5,4.4,5.6,5.3,4.7,6.2,1,1,3.906
19,Com3,15,5.4,5.4,4.5,6.3,3.3,7.5,3,3,3.763
19,Com2,18,6.6,4.4,5.6,5.4,4.7,6.3,1,1,2.691
19,Com3,20,5.6,5.5,4.7,6.4,3.6,7.5,1,3,2.469
19,Com3,21,5.7,5.8,4.6,6.9,3.6,7.9,2,3,1.762
19,Com1,23,7.4,3.5,6.5,4.4,5.4,5.5,2,1,1.745
19,Com3,24,5.1,5.4,4.0,6.5,3.1,7.4,1,3,1.972
19,Com2,26,6.8,4.1,5.7,5.2,4.8,6.1,1,1,2.047
19,Com1,27,7.5,3.5,6.5,4.5,5.4,5.6,3,1,2.095
19,Com3,32,5.5,5.6,4.5,6.6,3.5,7.6,1,3,1.598
19,Com1,33,7.4,3.4,6.3,4.5,5.4,5.4,2,1,1.984
19,Com1,34,7.6,3.5,6.7,4.4,5.6,5.5,1,1,1.648
19,Com1,35,7.6,3.5,6.5,4.6,5.5,5.6,2,1,1.504
19,Com3,38,5.4,5.4,4.4,6.4,3.3,7.5,1,3,1.44
19,Com3,40,5.6,5.4,4.7,6.3,3.6,7.4,1,3,6.336
19,Com3,41,5.5,5.5,4.5,6.5,3.4,7.6,3,3,2.544
19,Com1,44,7.6,3.4,6.5,4.5,5.5,5.5,1,1,2.962
19,Com3,46,5.6,5.5,4.6,6.5,3.5,7.6,1,3,3.263
19,Com2,48,6.4,4.7,5.5,5.6,4.5,6.6,3,2,11.951
19,Com3,50,5.3,5.8,4.2,6.9,3.4,7.7,3,3,4.415
19,Com3,52,5.6,5.5,4.5,6.6,3.6,7.5,1,1,4.303
19,Com2,54,6.6,4.4,5.5,5.5,4.6,6.4,2,2,7.63
19,Com3,55,5.5,5.6,4.6,6.5,3.6,7.5,1,3,2.112
19,Com1,56,7.6,3.5,6.5,4.6,5.6,5.5,2,1,3.168
19,Com2,57,6.5,4.5,5.5,5.5,4.5,6.5,2,1,3.167
19,Com3,60,5.4,5.6,4.3,6.7,3.4,7.6,2,3,3.359
19,Com3,63,5.4,5.5,4.5,6.4,3.3,7.6,1,1,3.506
19,Com3,66,5.4,5.4,4.4,6.4,3.5,7.3,2,3,8.335
19,Com2,67,6.6,4.6,5.7,5.5,4.7,6.5,1,2,4.769
19,Com1,73,7.4,3.3,6.4,4.3,5.3,5.4,2,1,2.685
19,Com1,74,7.6,3.2,6.6,4.2,5.6,5.2,2,3,4.979
19,Com3,75,5.6,5.5,4.5,6.6,3.5,7.6,1,1,2.799
19,Com2,76,6.6,4.5,5.5,5.6,4.5,6.6,1,2,2.147
19,Com1,77,7.7,3.1,6.5,4.3,5.6,5.2,1,1,2.318
19,Com1,78,7.5,3.3,6.4,4.4,5.4,5.4,2,3,3.743
19,Com3,82,5.6,5.4,4.7,6.3,3.5,7.5,3,1,2.448
19,Com2,88,6.7,4.4,5.6,5.5,4.5,6.6,1,2,3.278
19,Com3,90,5.5,5.5,4.6,6.4,3.4,7.6,1,1,2.29
19,Com2,91,6.4,4.7,5.5,5.6,4.6,6.5,2,2,2.132
19,Com1,93,7.6,3.3,6.5,4.4,5.6,5.3,3,1,3.952
19,Com1,94,7.2,3.7,6.2,4.7,5.3,5.6,2,1,2.577
19,Com1,97,7.7,3.4,6.6,4.5,5.6,5.5,3,1,2.622
19,Com3,98,5.5,5.6,4.5,6.6,3.5,7.6,1,3,5.17
19,Com3,99,5.6,5.5,4.7,6.4,3.5,7.6,1,3,2.03
19,Com1,101,7.6,3.4,6.6,4.4,5.6,5.4,2,1,1.885
19,Com3,103,5.5,5.6,4.5,6.6,3.5,7.6,2,1,2.337
19,Com3,104,5.4,5.5,4.4,6.5,3.4,7.5,2,1,1.967
19,Com2,105,6.5,4.5,5.4,5.6,4.3,6.7,1,2,1.807
19,Com1,108,7.5,3.6,6.4,4.7,5.5,5.6,3,1,2.991
19,Com3,109,5.7,5.5,4.7,6.5,3.8,7.4,1,1,1.824
19,Com2,110,6.6,4.6,5.5,5.7,4.6,6.6,1,2,1.615
19,Com1,112,7.6,3.5,6.4,4.7,5.5,5.6,1,1,1.966
19,Com2,113,6.3,4.5,5.4,5.4,4.4,6.4,2,2,1.983
19,Com1,115,7.5,3.5,6.5,4.5,5.4,5.6,2,1,1.63
19,Com1,116,7.3,3.6,6.3,4.6,5.4,5.5,2,1,2.399
19,Com1,117,7.6,3.5,6.4,4.7,5.5,5.6,2,1,1.822
19,Com2,118,6.3,4.6,5.4,5.5,4.3,6.6,2,1,8.753
19,Com1,122,7.6,3.5,6.6,4.5,5.6,5.5,2,1,1.609
19,Com1,124,7.5,3.5,6.6,4.4,5.6,5.4,1,1,2.097
19,Com2,126,6.6,4.2,5.6,5.2,4.5,6.3,2,1,2.527
19,Com2,127,6.4,4.6,5.4,5.6,4.3,6.7,3,2,2.286
19,Com2,128,6.3,4.6,5.4,5.5,4.5,6.4,3,2,1.984
19,Com3,130,5.4,5.6,4.5,6.5,3.4,7.6,2,3,1.856
19,Com1,142,7.4,3.6,6.6,4.4,5.5,5.5,3,1,2.125
19,Com3,143,5.7,5.2,4.8,6.1,3.7,7.2,2,1,2.322
19,Com1,145,7.4,3.8,6.6,4.6,5.5,5.7,3,1,2.014
19,Com2,148,6.2,4.3,5.1,5.4,4.0,6.5,2,2,2.783
19,Com3,149,5.6,5.3,4.7,6.2,3.6,7.3,3,1,2.319
19,Com2,150,6.5,4.4,5.5,5.4,4.4,6.5,1,2,2.0
19,Com1,153,7.6,3.3,6.5,4.4,5.5,5.4,3,1,1.744
19,Com2,154,6.6,4.4,5.5,5.5,4.4,6.6,2,2,4.274
19,Com2,156,6.6,4.9,5.7,5.8,4.6,6.9,1,2,2.368
19,Com1,160,7.5,3.5,6.6,4.4,5.5,5.5,2,1,4.609
19,Com2,161,6.5,4.6,5.6,5.5,4.7,6.4,2,2,2.96
19,Com3,164,5.6,5.2,4.5,6.3,3.6,7.2,2,3,1.439
19,Com1,167,7.5,3.4,6.4,4.5,5.4,5.5,1,1,2.353
19,Com2,172,6.3,4.5,5.4,5.4,4.5,6.3,3,2,3.133
19,Com2,174,6.2,4.9,5.3,5.8,4.2,6.9,1,2,3.254
19,Com1,175,7.8,3.1,6.8,4.1,5.7,5.2,1,1,3.424
19,Com2,179,6.5,4.6,5.5,5.6,4.5,6.6,3,2,4.048
19,Com2,180,6.6,4.4,5.6,5.4,4.7,6.3,2,2,2.126
19,Com1,181,7.4,3.7,6.2,4.9,5.3,5.8,2,1,3.423
19,Com2,184,6.4,4.3,5.3,5.4,4.4,6.3,2,2,1.935
19,Com2,186,6.5,4.4,5.4,5.5,4.4,6.5,1,2,5.583
19,Com3,189,5.5,5.6,4.5,6.6,3.5,7.6,3,1,3.025
19,Com2,190,6.4,4.7,5.5,5.6,4.5,6.6,1,2,1.342
19,Com2,194,6.5,4.3,5.6,5.2,4.5,6.3,2,2,3.487
19,Com3,195,5.4,5.5,4.3,6.6,3.3,7.6,1,1,1.746
19,Com3,196,5.5,5.7,4.6,6.6,3.5,7.7,2,1,3.201
19,Com1,198,7.5,3.4,6.3,4.6,5.4,5.5,2,1,3.137
19,Com2,203,6.6,4.5,5.6,5.5,4.5,6.6,2,2,1.585
19,Com2,205,6.4,4.5,5.4,5.5,4.3,6.6,3,2,2.59
19,Com2,206,6.5,4.5,5.4,5.6,4.5,6.5,3,2,2.562
19,Com1,208,7.5,3.4,6.3,4.6,5.4,5.5,3,1,2.687
19,Com2,209,6.4,4.4,5.4,5.4,4.5,6.3,1,2,2.511
19,Com3,210,5.5,5.4,4.4,6.5,3.4,7.5,2,1,1.761
19,Com3,211,5.4,5.6,4.3,6.7,3.4,7.6,1,1,2.511
19,Com2,215,6.6,4.5,5.6,5.5,4.6,6.5,2,2,1.921
19,Com2,219,6.3,4.6,5.4,5.5,4.4,6.5,2,2,6.178
19,Com1,220,7.8,3.7,6.6,4.9,5.7,5.8,3,1,2.653
19,Com2,223,6.4,4.4,5.4,5.4,4.4,6.4,2,2,7.392
19,Com1,225,7.4,3.6,6.4,4.6,5.4,5.6,3,1,4.065
19,Com2,226,6.5,4.4,5.5,5.4,4.4,6.5,3,2,5.662
19,Com1,228,7.7,3.4,6.5,4.6,5.6,5.5,3,1,3.041
19,Com3,232,5.6,5.2,4.5,6.3,3.5,7.3,3,3,6.833
19,Com2,234,6.5,4.6,5.6,5.5,4.7,6.4,2,2,5.936
19,Com1,236,7.3,3.5,6.3,4.5,5.4,5.4,2,1,1.262
19,Com3,237,5.5,5.5,4.4,6.6,3.5,7.5,1,3,1.815
19,Com1,239,7.4,3.5,6.5,4.4,5.5,5.4,3,1,1.99
19,Com1,240,7.7,3.5,6.6,4.6,5.7,5.5,3,1,2.128
20,Com1,1,7.6,3.5,6.4,4.7,5.5,5.6,2,3,18.233
20,Com2,2,6.5,4.6,5.6,5.5,4.7,6.4,2,2,12.432
20,Com2,7,6.7,4.4,5.6,5.5,4.5,6.6,1,2,8.115
20,Com1,8,7.7,3.4,6.5,4.6,5.6,5.5,3,3,6.566
20,Com2,9,6.2,4.9,5.3,5.8,4.2,6.9,1,2,10.863
20,Com3,15,5.6,5.5,4.7,6.4,3.5,7.6,3,1,5.939
20,Com2,16,6.6,4.6,5.5,5.7,4.6,6.6,2,2,8.866
20,Com2,18,6.5,4.4,5.5,5.4,4.4,6.5,1,2,4.467
20,Com3,21,5.4,5.5,4.4,6.5,3.4,7.5,3,1,5.378
20,Com1,23,7.5,3.6,6.4,4.7,5.5,5.6,1,3,7.076
20,Com1,28,7.5,3.5,6.5,4.5,5.4,5.6,3,3,3.614
20,Com3,31,5.5,5.6,4.6,6.5,3.6,7.5,3,1,3.807
20,Com2,36,6.4,4.7,5.5,5.6,4.5,6.6,2,2,7.664
20,Com3,38,5.3,5.8,4.2,6.9,3.4,7.7,1,1,4.894
20,Com1,39,7.6,3.3,6.5,4.4,5.6,5.3,2,3,2.77
20,Com2,40,6.4,4.4,5.4,5.4,4.4,6.4,2,1,1.776
20,Com2,42,6.4,4.6,5.4,5.6,4.3,6.7,2,2,1.65
20,Com2,44,6.6,4.5,5.5,5.6,4.5,6.6,2,2,11.584
20,Com3,45,5.4,5.5,4.3,6.6,3.4,7.5,3,1,1.408
20,Com3,46,5.7,5.2,4.8,6.1,3.7,7.2,3,1,4.215
20,Com2,49,6.5,4.3,5.6,5.2,4.5,6.3,2,2,2.99
20,Com1,52,7.3,3.5,6.3,4.5,5.4,5.4,2,3,3.71
20,Com1,54,7.7,3.5,6.6,4.6,5.7,5.5,3,3,6.305
20,Com1,55,7.5,3.5,6.6,4.4,5.6,5.4,1,3,4.306
20,Com2,57,6.5,4.6,5.5,5.6,4.5,6.6,2,2,3.405
20,Com2,58,6.3,4.5,5.4,5.4,4.4,6.4,3,2,6.815
20,Com2,60,6.3,4.6,5.4,5.5,4.3,6.6,1,2,9.676
20,Com1,62,7.7,3.1,6.5,4.3,5.6,5.2,1,3,2.886
20,Com3,63,5.5,5.6,4.5,6.6,3.5,7.6,2,1,1.599
20,Com2,66,6.3,4.6,5.4,5.5,4.4,6.5,1,2,1.95
20,Com2,67,6.4,4.7,5.5,5.6,4.5,6.6,1,2,1.299
20,Com2,68,6.8,4.1,5.7,5.2,4.8,6.1,3,2,2.183
20,Com3,69,5.6,5.5,4.6,6.5,3.5,7.6,1,1,1.888
20,Com3,71,5.5,5.6,4.5,6.6,3.5,7.6,3,1,2.975
20,Com3,72,5.5,5.5,4.5,6.5,3.4,7.6,1,1,3.856
20,Com1,74,7.0,3.5,6.2,4.3,5.1,5.4,1,3,7.841
20,Com1,75,7.6,3.2,6.6,4.2,5.6,5.2,1,3,2.977
20,Com3,76,5.4,5.6,4.3,6.7,3.4,7.6,3,1,3.854
20,Com3,77,5.7,5.8,4.6,6.9,3.6,7.9,2,1,1.662
20,Com1,80,7.5,3.6,6.6,4.5,5.5,5.6,2,3,5.391
20,Com2,84,6.4,4.4,5.4,5.4,4.5,6.3,1,2,1.856
20,Com2,87,6.3,4.5,5.4,5.4,4.5,6.3,3,2,10.816
20,Com2,88,6.5,4.5,5.4,5.6,4.3,6.7,3,2,3.52
20,Com1,89,7.4,3.5,6.5,4.4,5.4,5.5,2,3,1.598
20,Com1,90,7.4,3.8,6.6,4.6,5.5,5.7,2,3,1.537
20,Com2,92,6.2,4.3,5.1,5.4,4.0,6.5,3,2,5.424
20,Com3,95,5.6,5.5,4.5,6.6,3.5,7.6,1,1,3.726
20,Com1,98,7.4,3.6,6.6,4.4,5.5,5.5,1,3,1.823
20,Com1,100,7.2,3.7,6.2,4.7,5.3,5.6,2,3,3.214
20,Com3,101,5.4,5.4,4.4,6.4,3.5,7.3,3,1,1.839
20,Com1,102,7.5,3.5,6.5,4.5,5.4,5.6,2,3,3.073
20,Com3,103,5.6,5.2,4.5,6.3,3.6,7.2,2,1,3.088
20,Com1,105,7.4,3.4,6.3,4.5,5.4,5.4,2,3,1.169
20,Com3,107,5.5,5.4,4.4,6.5,3.4,7.5,2,1,1.951
20,Com1,108,7.4,3.7,6.2,4.9,5.3,5.8,2,3,3.27
