Sub,Effect,Trial,A1,A2,B1,B2,C1,C2,response,choice,RT
2,SimA1,1,3.4,7.5,5.4,5.5,3.2,7.7,1,2,43.047
2,SimA2,2,3.4,7.5,5.5,5.4,5.7,5.2,1,2,32.131
2,SimA1,4,3.4,7.6,5.5,5.5,3.3,7.7,3,1,23.745
2,SimA1,6,3.6,7.4,5.5,5.5,3.5,7.5,3,2,20.019
2,SimB2,8,7.6,3.5,5.5,5.6,5.3,5.8,2,1,22.177
2,SimB1,10,7.6,3.4,5.5,5.5,7.7,3.3,2,2,12.161
2,SimB1,11,7.5,3.4,5.5,5.4,7.6,3.3,3,3,9.14
2,SimA1,14,3.7,7.3,5.6,5.4,3.5,7.5,3,2,12.227
2,SimA1,19,3.5,7.5,5.4,5.6,3.3,7.7,3,2,17.859
2,SimB2,20,7.6,3.5,5.5,5.6,5.4,5.7,2,2,20.035
2,SimB1,24,7.5,3.4,5.5,5.4,7.7,3.2,3,1,15.666
2,SimB1,27,7.7,3.5,5.6,5.6,7.9,3.3,2,1,18.191
2,SimB1,28,7.6,3.6,5.6,5.6,7.7,3.5,3,1,19.632
2,SimB2,31,7.6,3.6,5.7,5.5,5.6,5.6,2,3,17.326
2,SimB1,33,7.4,3.5,5.5,5.4,7.5,3.4,2,2,10.529
2,SimB1,34,7.6,3.6,5.6,5.6,7.8,3.4,3,2,10.927
2,SimA1,36,3.4,7.5,5.5,5.4,3.2,7.7,3,2,11.939
2,SimA1,37,3.6,7.3,5.5,5.4,3.4,7.5,3,2,7.872
2,SimB1,38,7.4,3.6,5.5,5.5,7.6,3.4,2,2,6.606
2,SimB1,39,7.5,3.3,5.4,5.4,7.6,3.2,1,2,10.991
2,SimA1,42,3.5,7.5,5.5,5.5,3.3,7.7,1,2,4.144
2,SimA1,43,3.4,7.6,5.5,5.5,3.2,7.8,3,2,6.318
2,SimA1,44,3.4,7.5,5.4,5.5,3.3,7.6,1,2,4.063
2,SimA2,45,3.7,7.5,5.6,5.6,5.7,5.5,1,2,10.495
2,SimA2,48,3.5,7.5,5.5,5.5,5.6,5.4,2,2,5.696
2,SimB2,49,7.4,3.6,5.5,5.5,5.4,5.6,2,2,5.759
2,SimB1,52,7.4,3.6,5.4,5.6,7.6,3.4,3,2,8.831
2,SimA1,53,3.5,7.5,5.5,5.5,3.3,7.7,2,2,4.273
2,SimA1,54,3.6,7.3,5.5,5.4,3.4,7.5,3,2,5.487
2,SimA2,56,3.5,7.5,5.4,5.6,5.5,5.5,2,3,8.817
2,SimB1,60,7.5,3.6,5.5,5.6,7.6,3.5,2,2,11.327
2,SimB1,66,7.3,3.7,5.4,5.6,7.5,3.5,1,3,8.754
2,SimB2,67,7.6,3.4,5.5,5.5,5.4,5.6,2,2,3.315
2,SimA1,69,3.6,7.3,5.5,5.4,3.4,7.5,3,2,3.072
2,SimA2,75,3.4,7.5,5.4,5.5,5.6,5.3,1,2,4.927
2,SimB1,76,7.4,3.5,5.4,5.5,7.5,3.4,1,2,4.078
2,SimA2,77,3.4,7.6,5.5,5.5,5.7,5.3,3,2,3.504
2,SimA2,79,3.5,7.5,5.5,5.5,5.6,5.4,1,2,4.447
2,SimB2,80,7.5,3.6,5.5,5.6,5.4,5.7,3,2,8.032
2,SimA2,81,3.5,7.5,5.5,5.5,5.6,5.4,3,2,2.722
2,SimA1,83,3.3,7.5,5.4,5.4,3.2,7.6,2,2,3.087
2,SimA2,85,3.6,7.3,5.5,5.4,5.7,5.2,3,2,6.431
2,SimB2,89,7.3,3.6,5.4,5.5,5.3,5.6,3,2,4.462
2,SimA2,92,3.6,7.5,5.5,5.6,5.6,5.5,3,1,7.058
2,SimB1,93,7.6,3.6,5.7,5.5,7.8,3.4,3,2,4.304
2,SimB1,97,7.4,3.5,5.5,5.4,7.5,3.4,3,2,5.888
2,SimA1,101,3.5,7.5,5.5,5.5,3.3,7.7,2,2,6.433
2,SimB2,105,7.4,3.6,5.4,5.6,5.2,5.8,1,2,10.332
2,SimA1,108,3.7,7.5,5.7,5.5,3.6,7.6,1,2,6.288
2,SimB2,109,7.6,3.4,5.5,5.5,5.4,5.6,3,2,2.159
2,SimA1,111,3.4,7.6,5.4,5.6,3.3,7.7,1,2,2.414
2,SimA2,112,3.4,7.7,5.5,5.6,5.6,5.5,2,1,4.286
2,SimA2,114,3.6,7.6,5.6,5.6,5.8,5.4,1,2,5.253
2,SimB2,115,7.6,3.6,5.6,5.6,5.4,5.8,3,2,4.91
2,SimA1,116,3.6,7.3,5.5,5.4,3.4,7.5,3,2,5.229
2,SimA2,118,3.3,7.5,5.3,5.5,5.5,5.3,2,1,3.646
2,SimA1,119,3.3,7.6,5.4,5.5,3.1,7.8,2,2,5.731
2,SimB2,120,7.7,3.5,5.6,5.6,5.4,5.8,2,2,3.214
2,SimB2,123,7.3,3.5,5.3,5.5,5.1,5.7,2,2,6.241
2,SimA1,125,3.6,7.5,5.5,5.6,3.4,7.7,3,2,2.8
2,SimA2,126,3.3,7.6,5.4,5.5,5.5,5.4,1,1,3.536
2,SimB2,129,7.5,3.3,5.4,5.4,5.3,5.5,3,2,10.863
2,SimA1,130,3.5,7.5,5.5,5.5,3.4,7.6,3,2,2.59
2,SimB2,133,7.4,3.5,5.5,5.4,5.4,5.5,1,1,5.776
2,SimB2,135,7.3,3.7,5.4,5.6,5.2,5.8,3,3,9.2
2,SimB1,136,7.5,3.5,5.5,5.5,7.6,3.4,2,2,3.102
2,SimA2,139,3.5,7.6,5.5,5.6,5.6,5.5,1,1,3.473
2,SimB1,140,7.6,3.4,5.5,5.5,7.7,3.3,2,1,4.738
2,SimB2,144,7.3,3.6,5.4,5.5,5.2,5.7,1,1,6.496
2,SimB1,147,7.6,3.5,5.5,5.6,7.8,3.3,2,1,3.422
2,SimB2,148,7.6,3.4,5.5,5.5,5.4,5.6,3,1,2.931
2,SimA2,149,3.4,7.6,5.4,5.6,5.5,5.5,3,3,2.272
2,SimA1,151,3.7,7.5,5.6,5.6,3.5,7.7,3,2,2.401
2,SimB2,157,7.6,3.3,5.5,5.4,5.3,5.6,2,1,5.09
2,SimA1,158,3.4,7.7,5.5,5.6,3.2,7.9,1,2,3.283
2,SimB2,159,7.6,3.4,5.5,5.5,5.3,5.7,3,2,2.814
2,SimB1,160,7.6,3.5,5.5,5.6,7.7,3.4,2,2,2.735
2,SimB1,162,7.3,3.6,5.4,5.5,7.5,3.4,1,2,6.094
2,SimB2,166,7.6,3.6,5.6,5.6,5.4,5.8,2,2,3.597
2,SimB1,168,7.3,3.6,5.4,5.5,7.5,3.4,2,2,5.409
2,SimA2,169,3.6,7.3,5.5,5.4,5.7,5.2,3,1,7.725
2,SimA2,170,3.7,7.5,5.6,5.6,5.8,5.4,3,1,5.825
2,SimB2,173,7.4,3.5,5.4,5.5,5.2,5.7,2,1,5.458
2,SimA1,174,3.5,7.6,5.5,5.6,3.4,7.7,1,2,2.926
2,SimA1,175,3.7,7.5,5.6,5.6,3.6,7.6,3,3,3.792
2,SimA1,181,3.5,7.6,5.5,5.6,3.4,7.7,2,1,3.058
2,SimA2,183,3.4,7.6,5.5,5.5,5.6,5.4,2,2,3.375
2,SimA1,184,3.6,7.6,5.6,5.6,3.5,7.7,3,2,7.456
2,SimB2,185,7.6,3.4,5.6,5.4,5.4,5.6,2,1,3.135
2,SimB1,186,7.6,3.4,5.6,5.4,7.8,3.2,3,2,3.695
2,SimA2,188,3.4,7.5,5.4,5.5,5.6,5.3,3,1,3.712
2,SimB2,191,7.7,3.5,5.6,5.6,5.4,5.8,3,2,3.441
2,SimB1,192,7.4,3.6,5.4,5.6,7.5,3.5,1,2,4.398
2,SimB1,193,7.6,3.4,5.5,5.5,7.8,3.2,2,2,3.298
2,SimB2,198,7.6,3.4,5.5,5.5,5.4,5.6,3,1,2.224
2,SimA1,200,3.5,7.7,5.6,5.6,3.4,7.8,2,2,4.382
2,SimA2,201,3.6,7.3,5.5,5.4,5.6,5.3,1,1,3.535
2,SimB1,202,7.6,3.4,5.5,5.5,7.8,3.2,2,2,4.238
2,SimB1,203,7.3,3.5,5.3,5.5,7.5,3.3,3,2,3.887
2,SimA2,204,3.5,7.7,5.6,5.6,5.8,5.4,2,3,3.294
2,SimB2,205,7.5,3.5,5.5,5.5,5.4,5.6,2,2,2.56
2,SimA2,212,3.6,7.3,5.5,5.4,5.6,5.3,3,2,3.439
2,SimA2,214,3.7,7.5,5.7,5.5,5.8,5.4,1,3,2.289
2,SimA1,215,3.3,7.5,5.3,5.5,3.1,7.7,2,2,2.21
2,SimB2,216,7.5,3.4,5.5,5.4,5.3,5.6,2,1,3.631
2,SimA1,219,3.5,7.5,5.4,5.6,3.3,7.7,1,2,1.569
2,SimB1,220,7.7,3.5,5.6,5.6,7.8,3.4,3,2,2.815
2,SimB2,221,7.6,3.5,5.5,5.6,5.3,5.8,3,1,2.733
2,SimA2,222,3.7,7.3,5.6,5.4,5.8,5.2,2,1,4.722
2,SimA2,224,3.5,7.5,5.4,5.6,5.5,5.5,2,1,4.019
2,SimA2,225,3.5,7.5,5.5,5.5,5.6,5.4,1,2,1.568
2,SimA2,228,3.6,7.4,5.5,5.5,5.7,5.3,2,2,1.41
2,SimB1,233,7.6,3.5,5.5,5.6,7.8,3.3,3,2,3.149
2,SimB2,234,7.4,3.5,5.5,5.4,5.3,5.6,1,1,6.225
2,SimB2,235,7.4,3.6,5.4,5.6,5.2,5.8,1,1,6.206
2,SimB2,236,7.5,3.4,5.5,5.4,5.3,5.6,3,1,7.168
2,SimA2,237,3.3,7.5,5.4,5.4,5.6,5.2,3,1,2.43
2,SimA2,238,3.5,7.6,5.5,5.6,5.6,5.5,1,1,1.855
2,SimB1,239,7.6,3.3,5.5,5.4,7.7,3.2,2,2,4.237
2,SimB1,240,7.6,3.4,5.5,5.5,7.7,3.3,2,2,4.015
3,SimB1,5,7.6,3.6,5.6,5.6,7.7,3.5,2,3,26.513
3,SimA2,7,3.3,7.5,5.4,5.4,5.6,5.2,1,1,11.315
3,SimA1,9,3.4,7.7,5.5,5.6,3.2,7.9,1,3,11.717
3,SimA2,10,3.5,7.5,5.5,5.5,5.6,5.4,2,1,9.714
3,SimB2,12,7.4,3.6,5.5,5.5,5.4,5.6,1,1,8.258
3,SimA2,13,3.6,7.3,5.5,5.4,5.7,5.2,2,3,8.979
3,SimA1,16,3.5,7.5,5.4,5.6,3.3,7.7,2,3,6.628
3,SimA1,17,3.6,7.3,5.5,5.4,3.4,7.5,1,3,5.091
3,SimA2,18,3.5,7.5,5.5,5.5,5.6,5.4,2,1,5.491
3,SimA2,20,3.4,7.7,5.5,5.6,5.6,5.5,3,1,4.212
3,SimA1,22,3.5,7.5,5.5,5.5,3.3,7.7,1,2,4.227
3,SimB2,26,7.7,3.5,5.6,5.6,5.4,5.8,3,3,4.461
3,SimB1,27,7.6,3.5,5.5,5.6,7.8,3.3,1,1,5.391
3,SimA1,28,3.5,7.7,5.6,5.6,3.4,7.8,2,3,6.88
3,SimA1,31,3.6,7.3,5.5,5.4,3.4,7.5,1,2,4.352
3,SimA1,33,3.4,7.5,5.4,5.5,3.2,7.7,1,3,3.279
3,SimB1,34,7.7,3.5,5.6,5.6,7.8,3.4,1,3,3.808
3,SimB2,36,7.5,3.4,5.5,5.4,5.3,5.6,1,1,3.52
3,SimB2,40,7.6,3.4,5.5,5.5,5.3,5.7,3,3,3.089
3,SimA1,43,3.5,7.5,5.5,5.5,3.3,7.7,2,3,4.145
3,SimA1,46,3.6,7.3,5.5,5.4,3.4,7.5,1,3,4.352
3,SimA2,47,3.3,7.6,5.4,5.5,5.5,5.4,3,1,2.385
3,SimA2,48,3.4,7.6,5.5,5.5,5.7,5.3,3,1,7.311
3,SimB1,50,7.4,3.6,5.4,5.6,7.5,3.5,2,3,3.539
3,SimB1,54,7.6,3.5,5.5,5.6,7.7,3.4,2,1,3.277
3,SimA2,55,3.4,7.5,5.4,5.5,5.6,5.3,1,3,1.809
3,SimA2,59,3.5,7.5,5.5,5.5,5.6,5.4,3,1,4.096
3,SimB1,63,7.3,3.6,5.4,5.5,7.5,3.4,1,3,2.688
3,SimB1,65,7.5,3.4,5.5,5.4,7.6,3.3,1,3,4.062
3,SimB2,68,7.4,3.6,5.4,5.6,5.2,5.8,1,1,6.399
3,SimB1,69,7.6,3.3,5.5,5.4,7.7,3.2,1,1,2.72
3,SimB1,74,7.4,3.6,5.4,5.6,7.6,3.4,2,1,4.225
3,SimA1,80,3.3,7.6,5.4,5.5,3.1,7.8,3,3,1.696
3,SimB1,81,7.6,3.6,5.7,5.5,7.8,3.4,3,3,1.935
3,SimB2,82,7.5,3.4,5.5,5.4,5.3,5.6,3,1,4.081
3,SimB1,86,7.3,3.7,5.4,5.6,7.5,3.5,1,3,2.338
3,SimA1,87,3.5,7.5,5.5,5.5,3.3,7.7,2,3,1.81
3,SimA1,90,3.5,7.6,5.5,5.6,3.4,7.7,1,3,1.456
3,SimA1,95,3.3,7.5,5.4,5.4,3.2,7.6,1,3,3.487
3,SimA2,96,3.3,7.5,5.3,5.5,5.5,5.3,2,1,4.11
3,SimA2,97,3.7,7.3,5.6,5.4,5.8,5.2,2,3,3.601
3,SimB1,99,7.7,3.5,5.6,5.6,7.9,3.3,1,3,1.694
3,SimA1,101,3.4,7.6,5.5,5.5,3.3,7.7,3,3,2.175
3,SimB2,102,7.3,3.6,5.4,5.5,5.3,5.6,1,1,5.92
3,SimA2,104,3.4,7.5,5.5,5.4,5.7,5.2,3,1,3.47
3,SimA2,105,3.7,7.5,5.6,5.6,5.7,5.5,1,3,1.374
3,SimA1,106,3.7,7.5,5.7,5.5,3.6,7.6,3,2,4.312
3,SimB2,107,7.4,3.6,5.4,5.6,5.2,5.8,2,1,3.281
3,SimB2,108,7.6,3.4,5.5,5.5,5.4,5.6,2,1,4.59
3,SimB1,111,7.3,3.5,5.3,5.5,7.5,3.3,2,1,2.577
3,SimA2,113,3.4,7.6,5.4,5.6,5.5,5.5,2,1,2.113
3,SimB2,114,7.3,3.6,5.4,5.5,5.2,5.7,3,1,1.964
3,SimB2,115,7.6,3.6,5.6,5.6,5.4,5.8,1,1,3.427
3,SimA1,118,3.7,7.5,5.6,5.6,3.5,7.7,2,3,1.23
3,SimA2,120,3.4,7.5,5.4,5.5,5.6,5.3,1,3,1.918
3,SimB2,121,7.4,3.5,5.5,5.4,5.4,5.5,1,1,1.52
3,SimA1,122,3.6,7.6,5.6,5.6,3.5,7.7,2,3,4.999
3,SimB1,126,7.6,3.5,5.5,5.6,7.8,3.3,3,3,6.384
3,SimB1,128,7.4,3.5,5.4,5.5,7.5,3.4,2,3,2.703
3,SimB2,132,7.6,3.5,5.5,5.6,5.4,5.7,1,2,2.4
3,SimA2,133,3.5,7.6,5.5,5.6,5.6,5.5,2,1,1.55
3,SimB2,137,7.5,3.6,5.5,5.6,5.4,5.7,3,1,1.854
3,SimB2,138,7.4,3.5,5.5,5.4,5.3,5.6,1,1,1.681
3,SimB2,145,7.6,3.6,5.6,5.6,5.4,5.8,1,1,1.455
3,SimB1,148,7.6,3.4,5.5,5.5,7.7,3.3,1,3,2.127
3,SimB1,149,7.3,3.6,5.4,5.5,7.5,3.4,1,3,3.215
3,SimA2,150,3.6,7.6,5.6,5.6,5.8,5.4,2,1,6.738
3,SimA2,153,3.6,7.3,5.5,5.4,5.6,5.3,2,2,2.002
3,SimA1,156,3.6,7.3,5.5,5.4,3.4,7.5,1,3,4.465
3,SimB1,157,7.6,3.4,5.5,5.5,7.8,3.2,2,3,1.519
3,SimA1,158,3.5,7.5,5.5,5.5,3.4,7.6,2,3,2.161
3,SimA2,160,3.6,7.3,5.5,5.4,5.7,5.2,1,1,2.462
3,SimA2,163,3.5,7.5,5.4,5.6,5.5,5.5,1,1,1.727
3,SimA1,164,3.6,7.5,5.5,5.6,3.4,7.7,2,3,1.537
3,SimB1,165,7.6,3.4,5.5,5.5,7.7,3.3,1,3,1.278
3,SimB2,166,7.6,3.4,5.5,5.5,5.4,5.6,3,1,1.814
3,SimB2,168,7.6,3.4,5.5,5.5,5.4,5.6,2,1,1.712
3,SimA1,169,3.7,7.5,5.6,5.6,3.6,7.6,2,3,2.14
3,SimB2,170,7.6,3.6,5.7,5.5,5.6,5.6,2,1,1.79
3,SimB2,172,7.6,3.4,5.6,5.4,5.4,5.6,2,1,2.223
3,SimB2,174,7.5,3.3,5.4,5.4,5.3,5.5,3,1,1.65
3,SimB1,175,7.6,3.4,5.6,5.4,7.8,3.2,2,3,1.343
3,SimB2,176,7.6,3.3,5.5,5.4,5.3,5.6,1,1,1.368
3,SimA1,177,3.4,7.5,5.5,5.4,3.2,7.7,3,3,1.735
3,SimB2,180,7.3,3.7,5.4,5.6,5.2,5.8,2,3,2.432
3,SimA1,182,3.5,7.6,5.5,5.6,3.4,7.7,1,3,3.814
3,SimB1,183,7.6,3.4,5.5,5.5,7.7,3.3,1,3,1.328
3,SimA2,185,3.5,7.5,5.5,5.5,5.6,5.4,2,1,2.455
3,SimA2,186,3.6,7.4,5.5,5.5,5.7,5.3,2,1,4.255
3,SimA2,187,3.4,7.6,5.5,5.5,5.6,5.4,3,1,2.402
3,SimA1,189,3.3,7.5,5.3,5.5,3.1,7.7,3,3,5.01
3,SimB2,191,7.6,3.5,5.5,5.6,5.3,5.8,3,1,2.224
3,SimB1,192,7.5,3.5,5.5,5.5,7.6,3.4,2,3,2.094
3,SimA1,194,3.4,7.6,5.4,5.6,3.3,7.7,2,3,3.726
3,SimA2,196,3.7,7.5,5.7,5.5,5.8,5.4,2,1,2.127
3,SimA1,197,3.4,7.6,5.5,5.5,3.2,7.8,1,3,2.11
3,SimB2,198,7.6,3.5,5.5,5.6,5.3,5.8,3,1,2.593
3,SimB2,199,7.5,3.5,5.5,5.5,5.4,5.6,3,1,1.954
3,SimA1,200,3.7,7.3,5.6,5.4,3.5,7.5,1,3,2.352
3,SimA2,204,3.6,7.3,5.5,5.4,5.6,5.3,3,1,1.759
3,SimB2,205,7.6,3.4,5.5,5.5,5.4,5.6,2,1,1.743
3,SimB2,206,7.3,3.5,5.3,5.5,5.1,5.7,1,3,1.73
3,SimB1,208,7.4,3.5,5.5,5.4,7.5,3.4,1,3,1.744
3,SimB1,209,7.6,3.4,5.5,5.5,7.8,3.2,2,3,1.406
3,SimA2,210,3.6,7.5,5.5,5.6,5.6,5.5,3,1,6.679
3,SimB1,211,7.6,3.6,5.6,5.6,7.8,3.4,1,1,1.839
3,SimB1,212,7.5,3.6,5.5,5.6,7.6,3.5,1,3,1.696
3,SimA2,214,3.7,7.5,5.6,5.6,5.8,5.4,2,1,2.911
3,SimA1,215,3.6,7.4,5.5,5.5,3.5,7.5,1,3,1.471
3,SimB2,217,7.7,3.5,5.6,5.6,5.4,5.8,2,1,1.265
3,SimA2,219,3.5,7.6,5.5,5.6,5.6,5.5,2,1,2.271
3,SimB1,220,7.5,3.4,5.5,5.4,7.7,3.2,2,3,1.503
3,SimA2,225,3.5,7.5,5.4,5.6,5.5,5.5,2,2,3.022
3,SimA1,227,3.4,7.5,5.4,5.5,3.3,7.6,1,1,1.542
3,SimB1,229,7.4,3.6,5.5,5.5,7.6,3.4,2,3,1.264
3,SimB1,230,7.4,3.5,5.5,5.4,7.5,3.4,1,3,6.486
3,SimB2,231,7.4,3.5,5.4,5.5,5.2,5.7,1,1,1.778
3,SimA1,234,3.5,7.5,5.4,5.6,3.3,7.7,2,3,1.335
3,SimB1,237,7.5,3.3,5.4,5.4,7.6,3.2,2,3,1.791
3,SimA2,240,3.5,7.7,5.6,5.6,5.8,5.4,1,1,2.127
4,SimA1,4,3.6,7.6,5.6,5.6,3.5,7.7,1,2,10.883
4,SimA2,6,3.5,7.5,5.5,5.5,5.6,5.4,2,2,6.016
4,SimA1,7,3.5,7.5,5.5,5.5,3.3,7.7,3,2,2.98
4,SimB2,10,7.6,3.4,5.5,5.5,5.4,5.6,1,2,6.724
4,SimA2,13,3.6,7.4,5.5,5.5,5.7,5.3,2,2,12.948
4,SimB1,14,7.5,3.3,5.4,5.4,7.6,3.2,2,2,16.882
4,SimB2,15,7.5,3.4,5.5,5.4,5.3,5.6,1,1,6.387
4,SimB2,16,7.4,3.5,5.4,5.5,5.2,5.7,2,2,3.444
4,SimB2,17,7.6,3.4,5.5,5.5,5.3,5.7,2,2,1.298
4,SimA2,20,3.7,7.5,5.6,5.6,5.8,5.4,2,2,3.265
4,SimA2,21,3.5,7.6,5.5,5.6,5.6,5.5,2,2,11.686
4,SimB1,22,7.4,3.5,5.4,5.5,7.5,3.4,3,2,14.642
4,SimA1,23,3.4,7.5,5.4,5.5,3.2,7.7,1,2,7.268
4,SimB2,24,7.6,3.5,5.5,5.6,5.4,5.7,1,2,3.169
4,SimB2,27,7.6,3.4,5.5,5.5,5.4,5.6,1,2,1.757
4,SimA2,29,3.7,7.3,5.6,5.4,5.8,5.2,1,2,3.394
4,SimB1,33,7.7,3.5,5.6,5.6,7.9,3.3,1,2,6.595
4,SimA1,35,3.3,7.6,5.4,5.5,3.1,7.8,2,2,1.854
4,SimA2,36,3.5,7.5,5.5,5.5,5.6,5.4,2,2,3.102
4,SimA1,40,3.6,7.5,5.5,5.6,3.4,7.7,2,2,6.831
4,SimA1,41,3.5,7.5,5.5,5.5,3.4,7.6,3,2,14.976
4,SimB1,44,7.6,3.4,5.5,5.5,7.7,3.3,2,2,4.991
4,SimA2,45,3.3,7.6,5.4,5.5,5.5,5.4,1,2,10.079
4,SimB1,47,7.6,3.6,5.6,5.6,7.7,3.5,3,2,13.089
4,SimA2,48,3.6,7.3,5.5,5.4,5.7,5.2,3,2,7.07
4,SimA2,49,3.5,7.5,5.5,5.5,5.6,5.4,1,2,2.335
4,SimB1,55,7.6,3.4,5.5,5.5,7.8,3.2,2,2,1.312
4,SimB2,56,7.3,3.6,5.4,5.5,5.2,5.7,2,2,1.702
4,SimA1,57,3.4,7.5,5.5,5.4,3.2,7.7,1,2,1.763
4,SimA1,58,3.6,7.4,5.5,5.5,3.5,7.5,2,2,3.471
4,SimA1,61,3.7,7.5,5.7,5.5,3.6,7.6,2,2,2.418
4,SimB1,62,7.4,3.5,5.5,5.4,7.5,3.4,2,1,17.478
4,SimA2,63,3.7,7.5,5.7,5.5,5.8,5.4,3,2,4.911
4,SimB2,64,7.3,3.7,5.4,5.6,5.2,5.8,1,2,2.224
4,SimA1,65,3.5,7.6,5.5,5.6,3.4,7.7,1,2,1.793
4,SimA1,69,3.7,7.5,5.6,5.6,3.6,7.6,1,2,9.487
4,SimB2,70,7.4,3.5,5.5,5.4,5.4,5.5,1,3,4.079
4,SimA2,71,3.5,7.5,5.5,5.5,5.6,5.4,2,2,2.945
4,SimA1,76,3.5,7.7,5.6,5.6,3.4,7.8,3,2,4.366
4,SimB1,79,7.4,3.6,5.4,5.6,7.5,3.5,3,2,3.423
4,SimB1,81,7.5,3.6,5.5,5.6,7.6,3.5,2,3,3.215
4,SimB2,83,7.4,3.5,5.5,5.4,5.3,5.6,2,2,1.806
4,SimA2,85,3.4,7.6,5.4,5.6,5.5,5.5,2,3,11.617
4,SimB2,86,7.6,3.4,5.5,5.5,5.4,5.6,2,2,1.599
4,SimA2,87,3.5,7.7,5.6,5.6,5.8,5.4,1,2,3.789
4,SimA2,88,3.5,7.6,5.5,5.6,5.6,5.5,2,2,3.52
4,SimB1,93,7.7,3.5,5.6,5.6,7.8,3.4,1,3,3.954
4,SimA2,94,3.3,7.5,5.4,5.4,5.6,5.2,1,2,2.544
4,SimB2,95,7.6,3.4,5.6,5.4,5.4,5.6,2,3,3.041
4,SimB1,96,7.6,3.4,5.5,5.5,7.8,3.2,1,2,29.665
4,SimA2,102,3.7,7.5,5.6,5.6,5.7,5.5,3,2,2.097
4,SimB1,103,7.3,3.7,5.4,5.6,7.5,3.5,2,2,3.23
4,SimA1,104,3.5,7.5,5.4,5.6,3.3,7.7,3,2,2.338
4,SimB1,105,7.5,3.5,5.5,5.5,7.6,3.4,2,2,2.577
4,SimA1,110,3.6,7.3,5.5,5.4,3.4,7.5,3,2,3.933
4,SimB2,111,7.6,3.5,5.5,5.6,5.3,5.8,2,2,7.79
4,SimB2,113,7.4,3.6,5.4,5.6,5.2,5.8,1,2,14.447
4,SimA2,115,3.4,7.5,5.4,5.5,5.6,5.3,2,2,3.07
4,SimA2,116,3.6,7.3,5.5,5.4,5.7,5.2,3,2,6.59
4,SimB1,119,7.3,3.5,5.3,5.5,7.5,3.3,3,2,4.259
4,SimB1,120,7.6,3.4,5.5,5.5,7.7,3.3,2,2,2.59
4,SimA1,121,3.7,7.3,5.6,5.4,3.5,7.5,3,2,2.335
4,SimB2,122,7.4,3.6,5.4,5.6,5.2,5.8,2,2,3.781
4,SimB2,126,7.6,3.3,5.5,5.4,5.3,5.6,2,2,3.648
4,SimB1,127,7.6,3.4,5.6,5.4,7.8,3.2,1,2,3.727
4,SimB1,128,7.6,3.5,5.5,5.6,7.8,3.3,1,2,1.87
4,SimB1,133,7.6,3.3,5.5,5.4,7.7,3.2,3,2,3.518
4,SimB2,134,7.5,3.3,5.4,5.4,5.3,5.5,1,2,3.056
4,SimA1,135,3.6,7.3,5.5,5.4,3.4,7.5,1,2,2.575
4,SimA2,137,3.6,7.3,5.5,5.4,5.6,5.3,3,2,2.398
4,SimA1,140,3.5,7.6,5.5,5.6,3.4,7.7,3,2,2.753
4,SimA1,141,3.5,7.5,5.5,5.5,3.3,7.7,1,2,3.087
4,SimA1,143,3.4,7.7,5.5,5.6,3.2,7.9,2,2,9.47
4,SimB2,144,7.3,3.5,5.3,5.5,5.1,5.7,3,2,2.304
4,SimB1,145,7.5,3.4,5.5,5.4,7.7,3.2,1,2,2.91
4,SimA1,148,3.5,7.5,5.5,5.5,3.3,7.7,3,2,2.018
4,SimB2,149,7.5,3.6,5.5,5.6,5.4,5.7,2,2,2.816
4,SimA2,150,3.6,7.6,5.6,5.6,5.8,5.4,3,2,2.287
4,SimA2,151,3.6,7.5,5.5,5.6,5.6,5.5,2,2,3.535
4,SimA1,153,3.7,7.5,5.6,5.6,3.5,7.7,1,2,2.639
4,SimB2,155,7.7,3.5,5.6,5.6,5.4,5.8,3,2,5.79
4,SimA1,157,3.4,7.5,5.4,5.5,3.3,7.6,3,2,1.696
4,SimA2,158,3.3,7.5,5.3,5.5,5.5,5.3,2,2,3.458
4,SimB2,159,7.6,3.6,5.6,5.6,5.4,5.8,2,2,2.237
4,SimA1,161,3.3,7.5,5.4,5.4,3.2,7.6,2,2,2.913
4,SimA2,162,3.5,7.5,5.4,5.6,5.5,5.5,3,3,3.79
4,SimA1,163,3.5,7.5,5.4,5.6,3.3,7.7,3,2,2.848
4,SimA1,165,3.4,7.6,5.5,5.5,3.2,7.8,1,2,2.577
4,SimA1,167,3.6,7.3,5.5,5.4,3.4,7.5,2,2,1.936
4,SimA2,170,3.4,7.6,5.5,5.5,5.7,5.3,2,2,1.583
4,SimB1,171,7.4,3.6,5.5,5.5,7.6,3.4,1,2,2.691
4,SimB1,174,7.6,3.5,5.5,5.6,7.7,3.4,2,2,2.288
4,SimA2,176,3.4,7.5,5.5,5.4,5.7,5.2,3,2,3.25
4,SimB2,178,7.6,3.6,5.7,5.5,5.6,5.6,3,3,2.291
4,SimB1,181,7.6,3.5,5.5,5.6,7.8,3.3,2,2,1.791
4,SimA2,183,3.6,7.3,5.5,5.4,5.6,5.3,1,2,2.767
4,SimB1,187,7.6,3.6,5.6,5.6,7.8,3.4,2,2,3.361
4,SimA2,188,3.4,7.6,5.5,5.5,5.6,5.4,2,2,1.408
4,SimB1,189,7.4,3.6,5.4,5.6,7.6,3.4,3,2,3.43
4,SimA1,191,3.4,7.6,5.4,5.6,3.3,7.7,2,2,2.624
4,SimB1,193,7.5,3.4,5.5,5.4,7.6,3.3,3,2,2.499
4,SimA1,194,3.4,7.6,5.5,5.5,3.3,7.7,1,2,2.015
4,SimB1,197,7.6,3.6,5.7,5.5,7.8,3.4,3,2,2.993
4,SimA2,199,3.4,7.5,5.4,5.5,5.6,5.3,2,2,2.032
4,SimB2,204,7.5,3.4,5.5,5.4,5.3,5.6,2,2,4.755
4,SimB1,206,7.6,3.4,5.5,5.5,7.7,3.3,1,3,3.536
4,SimB1,207,7.3,3.6,5.4,5.5,7.5,3.4,1,2,24.706
4,SimB1,211,7.3,3.6,5.4,5.5,7.5,3.4,1,2,2.783
4,SimB2,212,7.3,3.6,5.4,5.5,5.3,5.6,1,2,1.792
4,SimA2,213,3.5,7.5,5.4,5.6,5.5,5.5,3,3,2.351
4,SimA2,215,3.4,7.7,5.5,5.6,5.6,5.5,3,2,3.041
4,SimA1,217,3.6,7.3,5.5,5.4,3.4,7.5,1,2,2.864
4,SimB2,221,7.4,3.6,5.5,5.5,5.4,5.6,1,2,1.82
4,SimB2,224,7.6,3.4,5.5,5.5,5.4,5.6,2,2,2.096
4,SimB2,228,7.5,3.5,5.5,5.5,5.4,5.6,3,2,2.813
4,SimA1,229,3.3,7.5,5.3,5.5,3.1,7.7,1,2,2.948
4,SimB2,231,7.6,3.6,5.6,5.6,5.4,5.8,1,2,2.448
4,SimB2,236,7.7,3.5,5.6,5.6,5.4,5.8,1,2,3.504
4,SimB2,237,7.6,3.5,5.5,5.6,5.3,5.8,3,2,2.224
4,SimB1,239,7.4,3.5,5.5,5.4,7.5,3.4,3,2,2.863
5,SimA2,3,3.3,7.6,5.4,5.5,5.5,5.4,3,1,21.875
5,SimA2,6,3.5,7.5,5.5,5.5,5.6,5.4,3,1,19.375
5,SimA1,7,3.5,7.6,5.5,5.6,3.4,7.7,3,2,29.107
5,SimB2,9,7.4,3.5,5.5,5.4,5.4,5.5,1,3,34.93
5,SimA2,10,3.4,7.6,5.5,5.5,5.7,5.3,1,2,8.723
5,SimB1,12,7.6,3.4,5.5,5.5,7.7,3.3,2,2,13.426
5,SimB1,13,7.5,3.5,5.5,5.5,7.6,3.4,3,2,11.892
5,SimA2,14,3.3,7.5,5.4,5.4,5.6,5.2,2,2,10.74
5,SimA2,20,3.6,7.3,5.5,5.4,5.6,5.3,3,2,5.394
5,SimB1,21,7.4,3.5,5.5,5.4,7.5,3.4,2,2,16.883
5,SimA1,22,3.6,7.3,5.5,5.4,3.4,7.5,1,2,5.364
5,SimB1,24,7.7,3.5,5.6,5.6,7.8,3.4,2,2,11.091
5,SimB2,25,7.6,3.4,5.6,5.4,5.4,5.6,3,2,7.888
5,SimB2,26,7.7,3.5,5.6,5.6,5.4,5.8,3,2,19.437
5,SimB1,27,7.3,3.5,5.3,5.5,7.5,3.3,1,2,12.288
5,SimA1,29,3.6,7.5,5.5,5.6,3.4,7.7,3,2,16.191
5,SimA1,33,3.4,7.6,5.5,5.5,3.2,7.8,1,2,7.25
5,SimB2,34,7.6,3.4,5.5,5.5,5.4,5.6,3,2,18.224
5,SimB1,36,7.4,3.5,5.4,5.5,7.5,3.4,3,2,4.96
5,SimA1,37,3.6,7.4,5.5,5.5,3.5,7.5,1,2,12.189
5,SimA2,39,3.5,7.5,5.5,5.5,5.6,5.4,2,3,10.606
5,SimB1,40,7.6,3.4,5.6,5.4,7.8,3.2,2,2,14.224
5,SimA1,41,3.7,7.3,5.6,5.4,3.5,7.5,1,2,8.691
5,SimA1,43,3.6,7.3,5.5,5.4,3.4,7.5,2,2,38.352
5,SimB1,44,7.6,3.4,5.5,5.5,7.7,3.3,1,2,3.759
5,SimA1,45,3.5,7.7,5.6,5.6,3.4,7.8,1,2,4.05
5,SimB2,46,7.6,3.4,5.5,5.5,5.3,5.7,3,2,2.64
5,SimB2,50,7.6,3.5,5.5,5.6,5.3,5.8,3,3,10.256
5,SimB1,51,7.6,3.5,5.5,5.6,7.8,3.3,1,2,8.114
5,SimA1,57,3.4,7.7,5.5,5.6,3.2,7.9,3,2,8.768
5,SimB1,58,7.4,3.6,5.4,5.6,7.6,3.4,2,2,10.063
5,SimB2,59,7.3,3.6,5.4,5.5,5.3,5.6,1,2,9.666
5,SimB1,60,7.6,3.6,5.6,5.6,7.8,3.4,3,2,5.407
5,SimB2,61,7.4,3.6,5.4,5.6,5.2,5.8,1,3,6.32
5,SimA1,66,3.5,7.5,5.5,5.5,3.3,7.7,3,3,12.72
5,SimB2,70,7.7,3.5,5.6,5.6,5.4,5.8,1,2,17.6
5,SimA1,71,3.3,7.5,5.4,5.4,3.2,7.6,1,2,12.193
5,SimB1,72,7.6,3.4,5.5,5.5,7.8,3.2,2,2,17.166
5,SimB2,73,7.5,3.3,5.4,5.4,5.3,5.5,2,1,9.725
5,SimB1,74,7.5,3.4,5.5,5.4,7.7,3.2,2,2,15.151
5,SimB1,79,7.7,3.5,5.6,5.6,7.9,3.3,2,2,7.583
5,SimA2,80,3.4,7.7,5.5,5.6,5.6,5.5,1,2,21.631
5,SimB2,81,7.6,3.4,5.5,5.5,5.4,5.6,1,3,10.701
5,SimB2,87,7.6,3.5,5.5,5.6,5.4,5.7,1,3,13.204
5,SimB2,88,7.6,3.6,5.6,5.6,5.4,5.8,3,3,17.326
5,SimA1,90,3.4,7.6,5.5,5.5,3.3,7.7,3,2,12.385
5,SimA2,94,3.5,7.5,5.5,5.5,5.6,5.4,1,3,7.39
5,SimB1,95,7.4,3.5,5.5,5.4,7.5,3.4,2,2,8.304
5,SimA1,96,3.4,7.5,5.4,5.5,3.2,7.7,2,2,9.727
5,SimB2,97,7.3,3.7,5.4,5.6,5.2,5.8,1,3,12.786
5,SimB2,99,7.4,3.5,5.5,5.4,5.3,5.6,3,3,10.16
5,SimA1,100,3.5,7.5,5.5,5.5,3.3,7.7,3,2,6.045
5,SimA2,103,3.5,7.5,5.5,5.5,5.6,5.4,2,3,4.304
5,SimB1,104,7.6,3.4,5.5,5.5,7.8,3.2,1,2,8.685
5,SimA2,105,3.5,7.5,5.4,5.6,5.5,5.5,2,3,7.407
5,SimB1,106,7.5,3.3,5.4,5.4,7.6,3.2,3,2,8.112
5,SimA2,110,3.4,7.6,5.4,5.6,5.5,5.5,1,2,7.137
5,SimB1,112,7.6,3.3,5.5,5.4,7.7,3.2,1,2,13.424
5,SimA1,115,3.6,7.3,5.5,5.4,3.4,7.5,2,2,9.137
5,SimA2,116,3.6,7.4,5.5,5.5,5.7,5.3,3,3,7.585
5,SimA2,119,3.6,7.5,5.5,5.6,5.6,5.5,1,1,8.593
5,SimB1,122,7.6,3.6,5.6,5.6,7.7,3.5,3,2,11.031
5,SimA1,125,3.5,7.6,5.5,5.6,3.4,7.7,1,2,9.776
5,SimA2,126,3.7,7.5,5.7,5.5,5.8,5.4,2,3,7.33
5,SimA2,131,3.5,7.5,5.4,5.6,5.5,5.5,3,2,6.815
5,SimA2,133,3.6,7.3,5.5,5.4,5.7,5.2,1,3,6.77
5,SimA1,138,3.7,7.5,5.7,5.5,3.6,7.6,3,2,5.52
5,SimB2,139,7.5,3.6,5.5,5.6,5.4,5.7,2,3,8.656
5,SimB2,142,7.5,3.4,5.5,5.4,5.3,5.6,2,3,11.297
5,SimA2,145,3.3,7.5,5.3,5.5,5.5,5.3,3,3,12.493
5,SimB2,146,7.6,3.4,5.5,5.5,5.4,5.6,2,3,4.386
5,SimB2,148,7.3,3.5,5.3,5.5,5.1,5.7,1,3,8.095
5,SimB2,150,7.6,3.5,5.5,5.6,5.3,5.8,1,3,9.729
5,SimA2,152,3.7,7.5,5.6,5.6,5.7,5.5,3,2,6.463
5,SimB2,155,7.4,3.6,5.4,5.6,5.2,5.8,3,3,4.494
5,SimB1,156,7.6,3.5,5.5,5.6,7.7,3.4,3,2,6.096
5,SimB2,160,7.5,3.5,5.5,5.5,5.4,5.6,2,3,7.535
5,SimB1,163,7.6,3.5,5.5,5.6,7.8,3.3,2,1,3.554
5,SimB2,164,7.5,3.4,5.5,5.4,5.3,5.6,2,3,3.453
5,SimB1,167,7.3,3.6,5.4,5.5,7.5,3.4,3,2,4.704
5,SimA2,169,3.5,7.6,5.5,5.6,5.6,5.5,1,2,8.306
5,SimA2,170,3.6,7.3,5.5,5.4,5.7,5.2,1,3,5.313
5,SimA2,172,3.4,7.6,5.5,5.5,5.6,5.4,3,3,3.376
5,SimA1,173,3.6,7.3,5.5,5.4,3.4,7.5,2,2,7.423
5,SimA1,174,3.3,7.6,5.4,5.5,3.1,7.8,3,2,3.247
5,SimA1,177,3.4,7.5,5.5,5.4,3.2,7.7,2,2,4.256
5,SimB2,179,7.4,3.5,5.4,5.5,5.2,5.7,3,3,5.104
5,SimB1,185,7.4,3.6,5.5,5.5,7.6,3.4,2,2,1.743
5,SimA2,188,3.5,7.6,5.5,5.6,5.6,5.5,2,2,4.336
5,SimA1,189,3.7,7.5,5.6,5.6,3.6,7.6,2,1,5.104
5,SimB1,191,7.6,3.6,5.7,5.5,7.8,3.4,1,2,4.381
5,SimB2,193,7.6,3.3,5.5,5.4,5.3,5.6,2,3,5.311
5,SimA2,194,3.6,7.6,5.6,5.6,5.8,5.4,1,2,4.178
5,SimA1,197,3.4,7.6,5.4,5.6,3.3,7.7,3,2,2.223
5,SimA1,198,3.5,7.5,5.5,5.5,3.3,7.7,1,2,2.944
5,SimA1,201,3.7,7.5,5.6,5.6,3.5,7.7,2,2,2.721
5,SimA2,202,3.5,7.7,5.6,5.6,5.8,5.4,3,3,4.288
5,SimA2,203,3.4,7.5,5.5,5.4,5.7,5.2,1,3,3.233
5,SimA1,204,3.5,7.5,5.4,5.6,3.3,7.7,3,2,2.894
5,SimB2,206,7.6,3.4,5.5,5.5,5.4,5.6,3,3,3.151
5,SimA1,209,3.6,7.6,5.6,5.6,3.5,7.7,2,2,2.752
5,SimA1,210,3.3,7.5,5.3,5.5,3.1,7.7,2,2,1.602
5,SimA2,211,3.6,7.3,5.5,5.4,5.6,5.3,3,3,2.031
5,SimB1,212,7.3,3.7,5.4,5.6,7.5,3.5,3,2,3.712
5,SimB2,213,7.3,3.6,5.4,5.5,5.2,5.7,3,3,2.303
5,SimA2,214,3.4,7.5,5.4,5.5,5.6,5.3,1,3,3.438
5,SimB1,218,7.5,3.4,5.5,5.4,7.6,3.3,3,3,6.53
5,SimB2,219,7.4,3.6,5.5,5.5,5.4,5.6,2,3,4.735
5,SimA1,220,3.5,7.5,5.5,5.5,3.4,7.6,1,2,1.776
5,SimB1,221,7.6,3.4,5.5,5.5,7.7,3.3,3,2,2.944
5,SimB1,222,7.5,3.6,5.5,5.6,7.6,3.5,3,2,1.601
5,SimA1,223,3.4,7.5,5.4,5.5,3.3,7.6,2,2,2.033
5,SimA2,224,3.4,7.5,5.4,5.5,5.6,5.3,2,3,2.925
5,SimA1,225,3.5,7.5,5.4,5.6,3.3,7.7,3,2,1.955
5,SimB2,229,7.6,3.6,5.7,5.5,5.6,5.6,3,2,4.863
5,SimA2,230,3.7,7.5,5.6,5.6,5.8,5.4,2,3,5.952
5,SimB1,233,7.4,3.6,5.4,5.6,7.5,3.5,3,2,6.686
5,SimA2,237,3.7,7.3,5.6,5.4,5.8,5.2,2,2,2.704
5,SimB1,238,7.3,3.6,5.4,5.5,7.5,3.4,3,2,3.585
5,SimB2,239,7.6,3.6,5.6,5.6,5.4,5.8,3,2,1.359
6,SimB2,3,7.4,3.5,5.5,5.4,5.3,5.6,1,2,41.859
6,SimB2,4,7.6,3.6,5.6,5.6,5.4,5.8,2,1,31.252
6,SimB2,5,7.6,3.5,5.5,5.6,5.3,5.8,1,2,33.057
6,SimB1,6,7.6,3.3,5.5,5.4,7.7,3.2,2,1,27.3
6,SimB1,8,7.4,3.6,5.4,5.6,7.6,3.4,3,1,20.034
6,SimA2,9,3.5,7.5,5.5,5.5,5.6,5.4,3,2,29.347
6,SimA1,12,3.6,7.4,5.5,5.5,3.5,7.5,1,3,18.754
6,SimA1,13,3.4,7.7,5.5,5.6,3.2,7.9,3,3,10.45
6,SimB1,15,7.3,3.6,5.4,5.5,7.5,3.4,1,3,33.426
6,SimB1,17,7.6,3.6,5.6,5.6,7.8,3.4,3,2,17.987
6,SimB2,18,7.6,3.5,5.5,5.6,5.4,5.7,2,2,17.811
6,SimA2,19,3.4,7.5,5.4,5.5,5.6,5.3,1,2,33.637
6,SimB2,20,7.4,3.6,5.4,5.6,5.2,5.8,3,2,8.194
6,SimA2,22,3.3,7.6,5.4,5.5,5.5,5.4,3,1,20.272
6,SimB2,26,7.4,3.6,5.5,5.5,5.4,5.6,1,3,13.295
6,SimA2,28,3.4,7.6,5.5,5.5,5.7,5.3,2,3,13.857
6,SimB2,29,7.4,3.5,5.4,5.5,5.2,5.7,1,2,15.999
6,SimB2,33,7.6,3.6,5.7,5.5,5.6,5.6,3,3,10.174
6,SimA2,38,3.5,7.6,5.5,5.6,5.6,5.5,3,1,8.463
6,SimB2,39,7.6,3.3,5.5,5.4,5.3,5.6,1,1,5.377
6,SimB1,40,7.3,3.7,5.4,5.6,7.5,3.5,3,3,7.248
6,SimA2,41,3.6,7.5,5.5,5.6,5.6,5.5,3,1,4.704
6,SimB1,43,7.6,3.4,5.5,5.5,7.8,3.2,3,3,5.778
6,SimA1,45,3.5,7.6,5.5,5.6,3.4,7.7,2,2,8.415
6,SimB2,47,7.5,3.4,5.5,5.4,5.3,5.6,1,1,7.665
6,SimA2,48,3.3,7.5,5.4,5.4,5.6,5.2,1,1,11.326
6,SimB2,54,7.5,3.4,5.5,5.4,5.3,5.6,1,1,5.137
6,SimB1,56,7.3,3.5,5.3,5.5,7.5,3.3,1,3,10.928
6,SimA2,58,3.5,7.5,5.5,5.5,5.6,5.4,3,1,2.641
6,SimB2,60,7.6,3.4,5.5,5.5,5.4,5.6,1,1,3.361
6,SimB1,61,7.7,3.5,5.6,5.6,7.9,3.3,1,3,9.455
6,SimA2,63,3.4,7.5,5.5,5.4,5.7,5.2,1,1,10.209
6,SimA2,64,3.6,7.3,5.5,5.4,5.7,5.2,3,3,7.805
6,SimA1,66,3.7,7.5,5.7,5.5,3.6,7.6,3,2,9.887
6,SimB2,67,7.6,3.6,5.6,5.6,5.4,5.8,3,1,3.472
6,SimA2,68,3.6,7.3,5.5,5.4,5.7,5.2,3,1,3.246
6,SimA1,71,3.4,7.5,5.4,5.5,3.2,7.7,3,3,7.807
6,SimB2,72,7.6,3.4,5.6,5.4,5.4,5.6,1,1,4.114
6,SimA1,73,3.3,7.5,5.3,5.5,3.1,7.7,2,2,12.288
6,SimB1,74,7.5,3.5,5.5,5.5,7.6,3.4,1,2,6.209
6,SimB1,76,7.5,3.3,5.4,5.4,7.6,3.2,3,2,4.158
6,SimA1,77,3.5,7.7,5.6,5.6,3.4,7.8,3,2,2.064
6,SimA2,79,3.6,7.3,5.5,5.4,5.6,5.3,1,1,3.533
6,SimB1,84,7.5,3.6,5.5,5.6,7.6,3.5,2,2,8.479
6,SimB1,86,7.4,3.5,5.4,5.5,7.5,3.4,1,2,5.024
6,SimB2,87,7.3,3.6,5.4,5.5,5.2,5.7,1,1,8.861
6,SimB1,90,7.5,3.4,5.5,5.4,7.7,3.2,2,3,0.783
6,SimA1,92,3.5,7.5,5.4,5.6,3.3,7.7,1,2,6.03
6,SimB1,93,7.6,3.4,5.6,5.4,7.8,3.2,3,2,4.914
6,SimA1,94,3.6,7.6,5.6,5.6,3.5,7.7,3,2,2.432
6,SimB2,95,7.5,3.3,5.4,5.4,5.3,5.5,2,1,3.119
6,SimB2,100,7.6,3.4,5.5,5.5,5.3,5.7,1,2,3.315
6,SimB2,103,7.5,3.5,5.5,5.5,5.4,5.6,1,1,2.669
6,SimA1,105,3.3,7.5,5.4,5.4,3.2,7.6,2,2,31.12
6,SimA2,107,3.5,7.7,5.6,5.6,5.8,5.4,3,1,2.464
6,SimA1,110,3.6,7.3,5.5,5.4,3.4,7.5,1,2,4.384
6,SimB1,114,7.6,3.4,5.5,5.5,7.7,3.3,3,2,4.705
6,SimA2,115,3.7,7.3,5.6,5.4,5.8,5.2,3,1,3.218
6,SimA1,121,3.4,7.6,5.4,5.6,3.3,7.7,2,2,2.639
6,SimA1,126,3.7,7.5,5.6,5.6,3.5,7.7,2,2,2.769
6,SimB2,127,7.3,3.6,5.4,5.5,5.3,5.6,3,1,5.185
6,SimB1,128,7.4,3.6,5.5,5.5,7.6,3.4,1,2,2.417
6,SimB2,129,7.7,3.5,5.6,5.6,5.4,5.8,1,1,7.967
6,SimB2,130,7.6,3.5,5.5,5.6,5.3,5.8,1,1,2.802
6,SimA2,132,3.6,7.4,5.5,5.5,5.7,5.3,2,1,2.64
6,SimA2,135,3.6,7.3,5.5,5.4,5.6,5.3,1,2,6.304
6,SimB1,138,7.6,3.4,5.5,5.5,7.7,3.3,1,2,3.44
6,SimA1,139,3.3,7.6,5.4,5.5,3.1,7.8,3,3,3.569
6,SimA1,146,3.6,7.3,5.5,5.4,3.4,7.5,1,2,3.361
6,SimA2,148,3.5,7.6,5.5,5.6,5.6,5.5,2,1,4.61
6,SimA2,151,3.7,7.5,5.6,5.6,5.7,5.5,2,3,1.648
6,SimA1,152,3.5,7.5,5.5,5.5,3.3,7.7,1,2,2.671
6,SimA1,153,3.5,7.5,5.5,5.5,3.3,7.7,2,2,3.551
6,SimB1,154,7.6,3.5,5.5,5.6,7.8,3.3,1,1,7.745
6,SimA1,156,3.4,7.5,5.5,5.4,3.2,7.7,3,2,1.844
6,SimB2,157,7.3,3.5,5.3,5.5,5.1,5.7,2,1,4.4
6,SimA1,159,3.6,7.3,5.5,5.4,3.4,7.5,2,2,1.614
6,SimB1,160,7.4,3.6,5.4,5.6,7.5,3.5,3,2,3.089
6,SimA2,161,3.5,7.5,5.4,5.6,5.5,5.5,2,1,2.018
6,SimA2,162,3.4,7.7,5.5,5.6,5.6,5.5,2,1,1.536
6,SimA2,163,3.7,7.5,5.7,5.5,5.8,5.4,2,1,1.423
6,SimA1,165,3.5,7.5,5.5,5.5,3.4,7.6,2,2,3.01
6,SimA2,166,3.7,7.5,5.6,5.6,5.8,5.4,3,1,3.216
6,SimA1,169,3.6,7.3,5.5,5.4,3.4,7.5,2,2,6.177
6,SimA1,171,3.4,7.5,5.4,5.5,3.3,7.6,2,2,3.679
6,SimA1,173,3.5,7.6,5.5,5.6,3.4,7.7,3,1,13.665
6,SimB1,175,7.6,3.5,5.5,5.6,7.7,3.4,2,2,2.239
6,SimB1,177,7.6,3.6,5.7,5.5,7.8,3.4,1,2,3.649
6,SimB2,180,7.4,3.6,5.4,5.6,5.2,5.8,1,2,5.729
6,SimA2,181,3.4,7.6,5.4,5.6,5.5,5.5,2,2,1.455
6,SimB1,183,7.6,3.4,5.5,5.5,7.8,3.2,3,3,4.16
6,SimA2,184,3.5,7.5,5.4,5.6,5.5,5.5,2,2,4.399
6,SimA2,185,3.5,7.5,5.5,5.5,5.6,5.4,3,3,3.873
6,SimB1,188,7.5,3.4,5.5,5.4,7.6,3.3,1,1,5.073
6,SimA2,190,3.4,7.6,5.5,5.5,5.6,5.4,2,3,4.654
6,SimB1,191,7.4,3.5,5.5,5.4,7.5,3.4,3,2,2.192
6,SimB1,192,7.6,3.6,5.6,5.6,7.7,3.5,3,2,3.775
6,SimB1,193,7.6,3.4,5.5,5.5,7.7,3.3,2,2,2.401
6,SimA1,195,3.5,7.5,5.4,5.6,3.3,7.7,2,2,5.472
6,SimA2,197,3.3,7.5,5.3,5.5,5.5,5.3,1,3,4.141
6,SimA1,200,3.5,7.5,5.5,5.5,3.3,7.7,2,2,2.081
6,SimB1,201,7.7,3.5,5.6,5.6,7.8,3.4,2,2,2.862
6,SimA1,202,3.4,7.6,5.5,5.5,3.3,7.7,2,2,3.12
6,SimB1,205,7.4,3.5,5.5,5.4,7.5,3.4,1,2,2.85
6,SimA1,206,3.4,7.6,5.5,5.5,3.2,7.8,2,2,1.599
6,SimA2,208,3.5,7.5,5.5,5.5,5.6,5.4,3,3,3.68
6,SimA1,212,3.7,7.3,5.6,5.4,3.5,7.5,2,2,3.094
6,SimA1,213,3.7,7.5,5.6,5.6,3.6,7.6,1,2,2.048
6,SimA2,215,3.4,7.5,5.4,5.5,5.6,5.3,1,3,4.254
6,SimB2,220,7.6,3.4,5.5,5.5,5.4,5.6,3,3,3.138
6,SimA1,223,3.6,7.5,5.5,5.6,3.4,7.7,2,2,1.359
6,SimB2,229,7.6,3.4,5.5,5.5,5.4,5.6,1,3,4.704
6,SimB2,230,7.5,3.6,5.5,5.6,5.4,5.7,2,3,3.424
6,SimB2,231,7.6,3.4,5.5,5.5,5.4,5.6,3,3,2.672
6,SimA2,232,3.6,7.6,5.6,5.6,5.8,5.4,1,3,2.498
6,SimB1,235,7.3,3.6,5.4,5.5,7.5,3.4,3,2,2.702
6,SimB1,236,7.6,3.5,5.5,5.6,7.8,3.3,2,2,2.432
6,SimB2,237,7.3,3.7,5.4,5.6,5.2,5.8,3,3,2.8
6,SimB2,238,7.4,3.5,5.5,5.4,5.4,5.5,2,2,3.666
6,SimB2,239,7.7,3.5,5.6,5.6,5.4,5.8,1,2,2.382
7,SimB1,2,7.6,3.6,5.6,5.6,7.7,3.5,1,2,22.084
7,SimA2,5,3.6,7.5,5.5,5.6,5.6,5.5,2,2,59.603
7,SimA1,7,3.5,7.5,5.5,5.5,3.4,7.6,2,3,26.676
7,SimA2,8,3.6,7.3,5.5,5.4,5.6,5.3,2,3,53.795
7,SimB2,9,7.3,3.5,5.3,5.5,5.1,5.7,2,1,25.763
7,SimB1,13,7.6,3.5,5.5,5.6,7.7,3.4,1,1,17.122
7,SimA2,14,3.3,7.5,5.4,5.4,5.6,5.2,1,2,40.225
7,SimB1,15,7.6,3.4,5.5,5.5,7.7,3.3,2,3,16.275
7,SimB2,18,7.6,3.4,5.5,5.5,5.4,5.6,3,3,22.898
7,SimA1,19,3.5,7.5,5.5,5.5,3.3,7.7,3,1,12.756
7,SimA1,23,3.3,7.5,5.4,5.4,3.2,7.6,2,1,26.946
7,SimB2,26,7.7,3.5,5.6,5.6,5.4,5.8,2,2,10.75
7,SimA2,31,3.5,7.6,5.5,5.6,5.6,5.5,2,2,31.359
7,SimA1,32,3.6,7.3,5.5,5.4,3.4,7.5,3,3,16.222
7,SimB1,33,7.7,3.5,5.6,5.6,7.9,3.3,3,1,33.503
7,SimB2,34,7.6,3.5,5.5,5.6,5.3,5.8,3,1,10.255
7,SimA2,35,3.4,7.5,5.4,5.5,5.6,5.3,3,3,20.542
7,SimB1,37,7.6,3.4,5.5,5.5,7.7,3.3,3,1,9.312
7,SimA2,39,3.5,7.5,5.5,5.5,5.6,5.4,1,3,29.44
7,SimA1,40,3.7,7.5,5.6,5.6,3.5,7.7,3,1,7.774
7,SimB1,45,7.4,3.5,5.5,5.4,7.5,3.4,3,1,32.543
7,SimB1,46,7.4,3.6,5.4,5.6,7.6,3.4,1,1,9.229
7,SimA2,51,3.7,7.5,5.6,5.6,5.7,5.5,1,2,9.457
7,SimA2,52,3.6,7.4,5.5,5.5,5.7,5.3,1,3,6.576
7,SimA1,53,3.4,7.7,5.5,5.6,3.2,7.9,1,1,28.174
7,SimB2,54,7.4,3.5,5.5,5.4,5.4,5.5,1,3,12.127
7,SimB2,57,7.3,3.7,5.4,5.6,5.2,5.8,1,2,18.272
7,SimB2,59,7.6,3.4,5.5,5.5,5.4,5.6,1,2,6.48
7,SimB2,60,7.6,3.4,5.6,5.4,5.4,5.6,3,2,8.688
7,SimA1,61,3.6,7.5,5.5,5.6,3.4,7.7,1,2,9.236
7,SimA2,62,3.5,7.5,5.5,5.5,5.6,5.4,1,3,11.638
7,SimA2,65,3.6,7.6,5.6,5.6,5.8,5.4,3,3,21.808
7,SimA2,67,3.7,7.5,5.7,5.5,5.8,5.4,3,2,7.806
7,SimB1,70,7.6,3.5,5.5,5.6,7.8,3.3,3,1,11.536
7,SimA2,71,3.7,7.5,5.6,5.6,5.8,5.4,3,2,16.48
7,SimA1,72,3.5,7.5,5.4,5.6,3.3,7.7,1,2,21.439
7,SimB2,73,7.6,3.4,5.5,5.5,5.3,5.7,3,3,24.67
7,SimA2,74,3.4,7.6,5.5,5.5,5.7,5.3,3,3,6.782
7,SimB1,76,7.6,3.4,5.6,5.4,7.8,3.2,1,1,7.791
7,SimA2,78,3.3,7.6,5.4,5.5,5.5,5.4,1,3,8.511
7,SimB1,79,7.6,3.6,5.6,5.6,7.8,3.4,2,1,5.152
7,SimA2,80,3.4,7.7,5.5,5.6,5.6,5.5,2,3,7.217
7,SimB1,81,7.5,3.5,5.5,5.5,7.6,3.4,3,1,8.239
7,SimA2,82,3.5,7.6,5.5,5.6,5.6,5.5,3,3,8.08
7,SimA1,84,3.6,7.3,5.5,5.4,3.4,7.5,1,3,5.485
7,SimB2,91,7.5,3.4,5.5,5.4,5.3,5.6,1,3,4.144
7,SimA1,92,3.6,7.3,5.5,5.4,3.4,7.5,3,1,10.56
7,SimA2,95,3.6,7.3,5.5,5.4,5.6,5.3,2,3,6.175
7,SimB2,97,7.6,3.6,5.6,5.6,5.4,5.8,2,2,6.656
7,SimB2,98,7.7,3.5,5.6,5.6,5.4,5.8,1,2,4.367
7,SimB1,99,7.5,3.6,5.5,5.6,7.6,3.5,2,2,11.553
7,SimB1,100,7.7,3.5,5.6,5.6,7.8,3.4,3,2,3.79
7,SimA1,103,3.6,7.4,5.5,5.5,3.5,7.5,3,2,7.455
7,SimB1,105,7.6,3.4,5.5,5.5,7.8,3.2,2,2,7.138
7,SimA2,108,3.4,7.6,5.5,5.5,5.6,5.4,1,2,12.594
7,SimB2,109,7.6,3.6,5.7,5.5,5.6,5.6,3,2,4.24
7,SimB1,110,7.5,3.4,5.5,5.4,7.7,3.2,2,2,9.167
7,SimB2,112,7.3,3.6,5.4,5.5,5.3,5.6,3,2,10.753
7,SimA2,114,3.6,7.3,5.5,5.4,5.7,5.2,1,2,15.793
7,SimB1,115,7.5,3.3,5.4,5.4,7.6,3.2,1,2,5.823
7,SimB1,116,7.6,3.5,5.5,5.6,7.8,3.3,2,1,9.454
7,SimA1,117,3.7,7.3,5.6,5.4,3.5,7.5,3,2,6.545
7,SimA1,118,3.7,7.5,5.6,5.6,3.6,7.6,1,2,3.504
7,SimB2,120,7.4,3.5,5.4,5.5,5.2,5.7,3,2,8.671
7,SimA1,121,3.6,7.6,5.6,5.6,3.5,7.7,2,2,4.416
7,SimB2,122,7.4,3.6,5.4,5.6,5.2,5.8,3,2,8.951
7,SimA2,123,3.6,7.3,5.5,5.4,5.7,5.2,3,2,9.488
7,SimA1,126,3.3,7.5,5.3,5.5,3.1,7.7,2,2,4.432
7,SimB1,127,7.5,3.4,5.5,5.4,7.6,3.3,2,1,5.501
7,SimB1,129,7.4,3.6,5.4,5.6,7.5,3.5,1,2,10.208
7,SimB1,130,7.3,3.6,5.4,5.5,7.5,3.4,1,2,4.271
7,SimA1,132,3.6,7.3,5.5,5.4,3.4,7.5,2,2,5.84
7,SimA2,133,3.4,7.5,5.5,5.4,5.7,5.2,3,3,3.585
7,SimB2,136,7.6,3.4,5.5,5.5,5.4,5.6,3,3,4.031
7,SimB2,137,7.3,3.6,5.4,5.5,5.2,5.7,2,2,5.666
7,SimB2,139,7.6,3.4,5.5,5.5,5.4,5.6,3,3,4.493
7,SimA1,143,3.4,7.5,5.4,5.5,3.2,7.7,2,2,7.423
7,SimA1,145,3.3,7.6,5.4,5.5,3.1,7.8,3,2,3.998
7,SimB2,146,7.4,3.6,5.4,5.6,5.2,5.8,1,2,10.066
7,SimA1,147,3.5,7.6,5.5,5.6,3.4,7.7,1,2,3.856
7,SimA1,150,3.5,7.5,5.4,5.6,3.3,7.7,2,2,8.831
7,SimB2,155,7.4,3.6,5.5,5.5,5.4,5.6,2,1,5.075
7,SimA2,158,3.3,7.5,5.3,5.5,5.5,5.3,3,3,3.662
7,SimA2,159,3.5,7.7,5.6,5.6,5.8,5.4,2,1,2.321
7,SimA1,161,3.7,7.5,5.7,5.5,3.6,7.6,2,2,4.175
7,SimA1,163,3.5,7.5,5.5,5.5,3.3,7.7,2,2,3.602
7,SimA2,171,3.4,7.5,5.4,5.5,5.6,5.3,2,3,3.631
7,SimA2,173,3.7,7.3,5.6,5.4,5.8,5.2,3,2,7.393
7,SimB1,174,7.4,3.5,5.4,5.5,7.5,3.4,3,2,3.648
7,SimA1,177,3.4,7.6,5.5,5.5,3.3,7.7,2,2,3.744
7,SimA1,178,3.4,7.5,5.4,5.5,3.3,7.6,1,2,5.681
7,SimA2,180,3.5,7.5,5.5,5.5,5.6,5.4,3,2,9.231
7,SimB2,181,7.6,3.5,5.5,5.6,5.4,5.7,2,2,10.111
7,SimB2,184,7.5,3.6,5.5,5.6,5.4,5.7,3,2,5.872
7,SimB1,186,7.6,3.3,5.5,5.4,7.7,3.2,1,1,3.33
7,SimB1,187,7.3,3.5,5.3,5.5,7.5,3.3,2,2,3.678
7,SimB2,192,7.5,3.5,5.5,5.5,5.4,5.6,3,3,3.106
7,SimB2,193,7.4,3.5,5.5,5.4,5.3,5.6,2,3,6.897
7,SimB2,194,7.6,3.6,5.6,5.6,5.4,5.8,2,2,3.455
7,SimA2,195,3.5,7.5,5.5,5.5,5.6,5.4,3,3,4.337
7,SimA1,198,3.5,7.6,5.5,5.6,3.4,7.7,1,1,7.663
7,SimB2,202,7.6,3.3,5.5,5.4,5.3,5.6,3,3,7.04
7,SimA2,203,3.5,7.5,5.4,5.6,5.5,5.5,2,3,4.175
7,SimA1,204,3.5,7.7,5.6,5.6,3.4,7.8,3,2,2.046
7,SimB1,205,7.3,3.7,5.4,5.6,7.5,3.5,2,1,6.497
7,SimB2,206,7.5,3.3,5.4,5.4,5.3,5.5,3,2,4.207
7,SimA2,212,3.4,7.6,5.4,5.6,5.5,5.5,2,3,2.056
7,SimA1,213,3.4,7.6,5.4,5.6,3.3,7.7,1,2,3.428
7,SimB1,215,7.6,3.4,5.5,5.5,7.7,3.3,2,2,2.112
7,SimB2,216,7.5,3.4,5.5,5.4,5.3,5.6,3,3,12.338
7,SimA1,217,3.5,7.5,5.5,5.5,3.3,7.7,1,2,2.094
7,SimA1,218,3.4,7.6,5.5,5.5,3.2,7.8,1,2,2.192
7,SimA2,226,3.5,7.5,5.4,5.6,5.5,5.5,2,3,5.775
7,SimB1,228,7.4,3.5,5.5,5.4,7.5,3.4,1,2,6.419
7,SimB1,229,7.6,3.6,5.7,5.5,7.8,3.4,2,3,4.416
7,SimB1,230,7.3,3.6,5.4,5.5,7.5,3.4,2,2,4.173
7,SimB1,233,7.4,3.6,5.5,5.5,7.6,3.4,2,2,2.288
7,SimB1,234,7.6,3.4,5.5,5.5,7.8,3.2,3,2,4.849
7,SimA1,237,3.4,7.5,5.5,5.4,3.2,7.7,2,3,2.669
7,SimB2,240,7.6,3.5,5.5,5.6,5.3,5.8,3,2,6.21
8,SimB1,4,7.5,3.6,5.5,5.6,7.6,3.5,3,3,32.466
8,SimA2,7,3.7,7.3,5.6,5.4,5.8,5.2,2,1,65.346
8,SimB1,8,7.6,3.6,5.6,5.6,7.7,3.5,2,3,17.57
8,SimB1,9,7.6,3.5,5.5,5.6,7.7,3.4,1,3,32.77
8,SimA2,10,3.4,7.6,5.5,5.5,5.6,5.4,2,1,41.778
8,SimB2,11,7.4,3.5,5.5,5.4,5.4,5.5,2,1,12.274
8,SimA1,13,3.3,7.5,5.4,5.4,3.2,7.6,3,3,32.914
8,SimB2,14,7.6,3.4,5.5,5.5,5.4,5.6,1,1,15.891
8,SimA1,16,3.6,7.3,5.5,5.4,3.4,7.5,3,3,182.257
8,SimB2,20,7.6,3.5,5.5,5.6,5.3,5.8,1,2,19.268
8,SimA1,23,3.7,7.5,5.7,5.5,3.6,7.6,1,3,35.65
8,SimB1,24,7.6,3.6,5.6,5.6,7.8,3.4,1,3,17.709
8,SimA2,25,3.7,7.5,5.6,5.6,5.8,5.4,2,1,23.217
8,SimB1,31,7.3,3.5,5.3,5.5,7.5,3.3,3,3,13.841
8,SimB1,32,7.5,3.3,5.4,5.4,7.6,3.2,2,3,4.145
8,SimB2,34,7.3,3.6,5.4,5.5,5.2,5.7,3,1,3.869
8,SimA2,37,3.6,7.6,5.6,5.6,5.8,5.4,1,1,3.727
8,SimB2,39,7.6,3.4,5.5,5.5,5.4,5.6,1,2,4.209
8,SimA2,41,3.4,7.5,5.4,5.5,5.6,5.3,1,1,4.079
8,SimA1,42,3.4,7.6,5.5,5.5,3.2,7.8,1,3,3.885
8,SimB1,44,7.5,3.4,5.5,5.4,7.7,3.2,1,3,4.322
8,SimB2,46,7.4,3.5,5.5,5.4,5.3,5.6,1,1,4.175
8,SimA2,47,3.5,7.7,5.6,5.6,5.8,5.4,2,1,19.121
8,SimB2,48,7.6,3.6,5.6,5.6,5.4,5.8,1,1,3.521
8,SimB2,51,7.6,3.6,5.6,5.6,5.4,5.8,2,1,3.743
8,SimA2,52,3.4,7.6,5.4,5.6,5.5,5.5,1,1,2.366
8,SimA2,57,3.5,7.5,5.5,5.5,5.6,5.4,2,1,3.231
8,SimB1,58,7.5,3.4,5.5,5.4,7.6,3.3,2,3,4.737
8,SimB1,62,7.7,3.5,5.6,5.6,7.8,3.4,3,3,11.653
8,SimB1,64,7.4,3.5,5.4,5.5,7.5,3.4,3,3,5.152
8,SimB1,65,7.4,3.5,5.5,5.4,7.5,3.4,1,3,6.479
8,SimA1,66,3.4,7.7,5.5,5.6,3.2,7.9,3,3,10.097
8,SimB1,69,7.6,3.4,5.5,5.5,7.7,3.3,3,3,7.358
8,SimA2,73,3.5,7.6,5.5,5.6,5.6,5.5,2,1,5.279
8,SimA1,76,3.5,7.5,5.4,5.6,3.3,7.7,2,3,4.77
8,SimA2,78,3.6,7.5,5.5,5.6,5.6,5.5,1,1,4.543
8,SimB1,81,7.4,3.6,5.4,5.6,7.6,3.4,3,3,11.761
8,SimA1,85,3.5,7.7,5.6,5.6,3.4,7.8,3,3,12.337
8,SimA2,86,3.6,7.3,5.5,5.4,5.7,5.2,3,1,10.32
8,SimA2,90,3.3,7.6,5.4,5.5,5.5,5.4,2,1,3.023
8,SimB1,96,7.6,3.4,5.5,5.5,7.8,3.2,3,3,5.904
8,SimB2,97,7.7,3.5,5.6,5.6,5.4,5.8,3,1,3.12
8,SimB2,98,7.5,3.5,5.5,5.5,5.4,5.6,2,1,2.689
8,SimB2,100,7.6,3.3,5.5,5.4,5.3,5.6,2,1,3.458
8,SimA1,105,3.5,7.5,5.5,5.5,3.3,7.7,2,3,3.937
8,SimA1,106,3.5,7.5,5.4,5.6,3.3,7.7,3,3,5.485
8,SimA1,108,3.4,7.6,5.4,5.6,3.3,7.7,3,3,15.584
8,SimA1,109,3.3,7.6,5.4,5.5,3.1,7.8,1,3,6.382
8,SimA1,111,3.6,7.5,5.5,5.6,3.4,7.7,2,3,4.817
8,SimB1,113,7.5,3.5,5.5,5.5,7.6,3.4,3,3,7.905
8,SimB1,117,7.4,3.5,5.5,5.4,7.5,3.4,1,3,8.815
8,SimB1,119,7.3,3.7,5.4,5.6,7.5,3.5,1,2,6.529
8,SimA2,121,3.4,7.5,5.5,5.4,5.7,5.2,2,1,5.92
8,SimB2,125,7.6,3.4,5.6,5.4,5.4,5.6,1,1,2.639
8,SimA2,126,3.7,7.5,5.7,5.5,5.8,5.4,3,1,3.873
8,SimB1,128,7.4,3.6,5.5,5.5,7.6,3.4,2,3,14.497
8,SimB1,129,7.6,3.6,5.7,5.5,7.8,3.4,2,3,15.68
8,SimA2,134,3.5,7.5,5.5,5.5,5.6,5.4,3,1,2.384
8,SimB2,135,7.4,3.5,5.4,5.5,5.2,5.7,3,1,4.033
8,SimA1,139,3.6,7.4,5.5,5.5,3.5,7.5,3,3,8.274
8,SimA1,140,3.6,7.6,5.6,5.6,3.5,7.7,2,3,9.264
8,SimB2,141,7.4,3.6,5.4,5.6,5.2,5.8,2,1,6.528
8,SimA2,142,3.3,7.5,5.3,5.5,5.5,5.3,1,1,3.95
8,SimB2,148,7.3,3.5,5.3,5.5,5.1,5.7,2,1,6.049
8,SimA1,150,3.7,7.5,5.6,5.6,3.6,7.6,2,3,4.591
8,SimB1,152,7.6,3.5,5.5,5.6,7.8,3.3,3,3,12.702
8,SimA2,155,3.6,7.3,5.5,5.4,5.6,5.3,2,1,8.831
8,SimA2,157,3.5,7.5,5.5,5.5,5.6,5.4,2,1,4.703
8,SimA2,158,3.5,7.5,5.4,5.6,5.5,5.5,2,1,1.743
8,SimB2,159,7.6,3.4,5.5,5.5,5.4,5.6,3,1,4.864
8,SimA1,162,3.6,7.3,5.5,5.4,3.4,7.5,2,3,3.584
8,SimB2,165,7.6,3.4,5.5,5.5,5.4,5.6,2,1,3.297
8,SimB2,166,7.4,3.6,5.4,5.6,5.2,5.8,1,1,3.392
8,SimA1,167,3.5,7.5,5.5,5.5,3.4,7.6,3,3,6.752
8,SimB2,168,7.6,3.4,5.5,5.5,5.3,5.7,3,1,3.631
8,SimA1,169,3.5,7.6,5.5,5.6,3.4,7.7,2,3,3.409
8,SimA1,171,3.5,7.6,5.5,5.6,3.4,7.7,2,3,4.75
8,SimA2,178,3.4,7.7,5.5,5.6,5.6,5.5,1,1,2.45
8,SimB2,179,7.6,3.5,5.5,5.6,5.3,5.8,2,1,3.217
8,SimA2,180,3.5,7.6,5.5,5.6,5.6,5.5,3,1,2.495
8,SimA1,181,3.7,7.5,5.6,5.6,3.5,7.7,2,3,4.769
8,SimA2,184,3.4,7.6,5.5,5.5,5.7,5.3,3,1,6.479
8,SimB2,188,7.3,3.6,5.4,5.5,5.3,5.6,2,3,1.135
8,SimB1,189,7.6,3.4,5.5,5.5,7.7,3.3,2,3,9.206
8,SimB1,190,7.3,3.6,5.4,5.5,7.5,3.4,3,1,10.222
8,SimB1,191,7.6,3.4,5.5,5.5,7.7,3.3,3,3,3.057
8,SimB1,192,7.3,3.6,5.4,5.5,7.5,3.4,3,3,0.77
8,SimB1,193,7.6,3.5,5.5,5.6,7.8,3.3,1,3,5.014
8,SimA1,195,3.7,7.3,5.6,5.4,3.5,7.5,1,1,3.471
8,SimA1,199,3.6,7.3,5.5,5.4,3.4,7.5,3,3,8.512
8,SimB1,201,7.6,3.3,5.5,5.4,7.7,3.2,2,3,6.927
8,SimA1,202,3.4,7.5,5.4,5.5,3.2,7.7,1,3,3.295
8,SimB1,203,7.7,3.5,5.6,5.6,7.9,3.3,2,3,4.018
8,SimA1,204,3.5,7.5,5.5,5.5,3.3,7.7,1,3,5.535
8,SimA2,205,3.4,7.5,5.4,5.5,5.6,5.3,3,1,6.909
8,SimA2,206,3.6,7.3,5.5,5.4,5.7,5.2,3,1,6.464
8,SimA2,207,3.5,7.5,5.4,5.6,5.5,5.5,1,1,3.311
8,SimB1,209,7.4,3.6,5.4,5.6,7.5,3.5,3,3,4.512
8,SimA2,210,3.6,7.3,5.5,5.4,5.6,5.3,2,1,3.423
8,SimB1,211,7.6,3.4,5.5,5.5,7.8,3.2,3,3,16.162
8,SimA2,212,3.5,7.5,5.5,5.5,5.6,5.4,1,1,2.72
8,SimA2,214,3.3,7.5,5.4,5.4,5.6,5.2,1,3,0.999
8,SimB2,215,7.7,3.5,5.6,5.6,5.4,5.8,2,3,1.957
8,SimA1,216,3.4,7.6,5.5,5.5,3.3,7.7,1,3,1.647
8,SimB2,217,7.5,3.4,5.5,5.4,5.3,5.6,3,1,3.12
8,SimB2,220,7.6,3.5,5.5,5.6,5.4,5.7,3,1,2.866
8,SimB2,221,7.5,3.3,5.4,5.4,5.3,5.5,3,1,1.454
8,SimA2,222,3.7,7.5,5.6,5.6,5.7,5.5,1,1,3.367
8,SimA1,223,3.5,7.5,5.5,5.5,3.3,7.7,3,3,1.519
8,SimA1,225,3.3,7.5,5.3,5.5,3.1,7.7,1,3,3.454
8,SimB1,226,7.6,3.4,5.6,5.4,7.8,3.2,2,3,1.999
8,SimA1,228,3.4,7.5,5.4,5.5,3.3,7.6,2,3,7.871
8,SimB2,229,7.5,3.4,5.5,5.4,5.3,5.6,1,1,4.878
8,SimA1,231,3.4,7.5,5.5,5.4,3.2,7.7,2,3,2.574
8,SimB2,233,7.3,3.7,5.4,5.6,5.2,5.8,3,1,1.759
8,SimB2,235,7.5,3.6,5.5,5.6,5.4,5.7,1,1,7.615
8,SimB2,237,7.4,3.6,5.5,5.5,5.4,5.6,1,1,6.175
8,SimA1,238,3.6,7.3,5.5,5.4,3.4,7.5,1,3,9.533
8,SimA2,239,3.6,7.4,5.5,5.5,5.7,5.3,3,1,7.827
8,SimB2,240,7.6,3.6,5.7,5.5,5.6,5.6,3,1,2.895
10,SimB2,2,7.7,3.5,5.6,5.6,5.4,5.8,1,2,68.42
10,SimA1,3,3.5,7.6,5.5,5.6,3.4,7.7,3,3,46.482
10,SimB2,6,7.5,3.6,5.5,5.6,5.4,5.7,1,1,54.482
10,SimA1,9,3.5,7.7,5.6,5.6,3.4,7.8,3,1,19.476
10,SimA1,12,3.5,7.5,5.4,5.6,3.3,7.7,2,1,25.763
10,SimB2,14,7.6,3.6,5.6,5.6,5.4,5.8,1,2,10.897
10,SimA2,17,3.6,7.3,5.5,5.4,5.6,5.3,3,1,23.588
10,SimA2,18,3.7,7.5,5.6,5.6,5.8,5.4,2,1,17.411
10,SimB2,19,7.4,3.6,5.5,5.5,5.4,5.6,1,2,19.009
10,SimB1,23,7.5,3.4,5.5,5.4,7.7,3.2,2,1,24.738
10,SimB1,27,7.5,3.4,5.5,5.4,7.6,3.3,1,1,10.124
10,SimB1,31,7.6,3.4,5.5,5.5,7.7,3.3,3,3,14.128
10,SimB1,35,7.7,3.5,5.6,5.6,7.8,3.4,2,2,11.872
10,SimB2,36,7.6,3.5,5.5,5.6,5.4,5.7,1,3,16.238
10,SimA1,38,3.4,7.6,5.5,5.5,3.3,7.7,1,2,6.895
10,SimB1,42,7.4,3.5,5.4,5.5,7.5,3.4,1,3,12.623
10,SimA1,43,3.5,7.5,5.5,5.5,3.3,7.7,3,1,8.337
10,SimA2,44,3.6,7.6,5.6,5.6,5.8,5.4,2,2,16.685
10,SimA1,45,3.6,7.5,5.5,5.6,3.4,7.7,3,3,35.008
10,SimB1,46,7.6,3.5,5.5,5.6,7.7,3.4,3,1,43.681
10,SimA1,47,3.7,7.5,5.7,5.5,3.6,7.6,1,3,31.07
10,SimA1,48,3.6,7.3,5.5,5.4,3.4,7.5,2,3,20.129
10,SimB2,51,7.3,3.7,5.4,5.6,5.2,5.8,2,3,22.303
10,SimB1,54,7.6,3.6,5.6,5.6,7.8,3.4,1,3,24.88
10,SimA2,57,3.5,7.5,5.5,5.5,5.6,5.4,3,3,9.472
10,SimB1,62,7.3,3.7,5.4,5.6,7.5,3.5,1,3,22.566
10,SimA2,63,3.5,7.5,5.4,5.6,5.5,5.5,2,1,5.537
10,SimB2,66,7.4,3.5,5.5,5.4,5.4,5.5,3,1,6.513
10,SimB2,68,7.5,3.4,5.5,5.4,5.3,5.6,1,3,13.072
10,SimA1,70,3.6,7.3,5.5,5.4,3.4,7.5,2,3,14.368
10,SimB2,71,7.4,3.6,5.4,5.6,5.2,5.8,3,3,6.432
10,SimA2,74,3.5,7.6,5.5,5.6,5.6,5.5,3,3,11.232
10,SimA1,76,3.6,7.3,5.5,5.4,3.4,7.5,1,1,14.862
10,SimB2,78,7.5,3.4,5.5,5.4,5.3,5.6,2,1,8.11
10,SimA1,79,3.6,7.6,5.6,5.6,3.5,7.7,3,3,17.71
10,SimA1,80,3.4,7.5,5.4,5.5,3.3,7.6,1,2,7.921
10,SimB1,82,7.6,3.5,5.5,5.6,7.8,3.3,1,2,28.815
10,SimB1,84,7.6,3.5,5.5,5.6,7.8,3.3,2,1,14.0
10,SimA2,85,3.5,7.5,5.5,5.5,5.6,5.4,3,3,5.073
10,SimB1,87,7.6,3.3,5.5,5.4,7.7,3.2,3,3,7.49
10,SimB1,93,7.4,3.6,5.4,5.6,7.5,3.5,3,2,10.417
10,SimB1,95,7.3,3.6,5.4,5.5,7.5,3.4,3,3,11.998
10,SimB2,97,7.3,3.6,5.4,5.5,5.3,5.6,1,2,7.135
10,SimB1,100,7.5,3.3,5.4,5.4,7.6,3.2,2,1,7.822
10,SimA1,101,3.4,7.6,5.5,5.5,3.2,7.8,1,3,8.479
10,SimB2,102,7.5,3.5,5.5,5.5,5.4,5.6,2,2,6.624
10,SimB1,103,7.5,3.5,5.5,5.5,7.6,3.4,3,3,4.287
10,SimB2,104,7.3,3.5,5.3,5.5,5.1,5.7,3,1,8.367
10,SimB2,108,7.5,3.3,5.4,5.4,5.3,5.5,3,2,9.152
10,SimB2,109,7.6,3.4,5.5,5.5,5.4,5.6,3,1,5.39
10,SimA2,111,3.4,7.5,5.5,5.4,5.7,5.2,1,2,7.682
10,SimA2,113,3.6,7.3,5.5,5.4,5.6,5.3,3,3,5.628
10,SimA2,115,3.5,7.5,5.5,5.5,5.6,5.4,2,2,9.12
10,SimA1,119,3.5,7.5,5.4,5.6,3.3,7.7,3,3,11.918
10,SimA1,120,3.4,7.5,5.5,5.4,3.2,7.7,1,3,6.591
10,SimB2,121,7.6,3.5,5.5,5.6,5.3,5.8,3,2,26.126
10,SimA2,122,3.3,7.5,5.3,5.5,5.5,5.3,1,3,10.086
10,SimB1,123,7.6,3.4,5.5,5.5,7.7,3.3,2,1,5.311
10,SimB1,124,7.3,3.5,5.3,5.5,7.5,3.3,3,1,4.354
10,SimA2,125,3.3,7.6,5.4,5.5,5.5,5.4,2,1,4.16
10,SimB1,127,7.6,3.4,5.5,5.5,7.8,3.2,3,1,10.414
10,SimB2,128,7.6,3.3,5.5,5.4,5.3,5.6,1,3,8.912
10,SimB1,129,7.3,3.6,5.4,5.5,7.5,3.4,2,3,5.182
10,SimB2,131,7.3,3.6,5.4,5.5,5.2,5.7,3,3,12.831
10,SimA1,134,3.4,7.7,5.5,5.6,3.2,7.9,1,1,11.63
10,SimA2,135,3.6,7.4,5.5,5.5,5.7,5.3,2,1,7.089
10,SimA1,136,3.5,7.6,5.5,5.6,3.4,7.7,3,1,7.804
10,SimB1,139,7.6,3.4,5.6,5.4,7.8,3.2,2,2,16.706
10,SimB1,140,7.4,3.6,5.4,5.6,7.6,3.4,3,1,7.361
10,SimA2,141,3.4,7.5,5.4,5.5,5.6,5.3,1,3,7.294
10,SimB2,145,7.7,3.5,5.6,5.6,5.4,5.8,3,3,12.626
10,SimA2,146,3.4,7.5,5.4,5.5,5.6,5.3,1,2,6.015
10,SimA1,147,3.3,7.6,5.4,5.5,3.1,7.8,2,3,5.392
10,SimA2,155,3.6,7.3,5.5,5.4,5.7,5.2,2,1,8.544
10,SimA2,157,3.5,7.5,5.5,5.5,5.6,5.4,3,2,6.591
10,SimB1,158,7.5,3.6,5.5,5.6,7.6,3.5,3,3,9.955
10,SimA2,160,3.7,7.5,5.6,5.6,5.7,5.5,2,3,22.193
10,SimA1,161,3.7,7.3,5.6,5.4,3.5,7.5,3,2,5.2
10,SimB2,163,7.4,3.6,5.4,5.6,5.2,5.8,3,3,14.592
10,SimA2,164,3.4,7.7,5.5,5.6,5.6,5.5,1,3,11.216
10,SimB2,165,7.6,3.6,5.7,5.5,5.6,5.6,3,1,11.248
10,SimA2,166,3.6,7.3,5.5,5.4,5.7,5.2,3,1,10.722
10,SimB2,170,7.6,3.6,5.6,5.6,5.4,5.8,1,2,15.072
10,SimA1,177,3.7,7.5,5.6,5.6,3.5,7.7,3,3,10.385
10,SimB2,178,7.4,3.5,5.5,5.4,5.3,5.6,1,2,3.887
10,SimA1,183,3.3,7.5,5.4,5.4,3.2,7.6,3,3,7.071
10,SimA1,184,3.5,7.5,5.5,5.5,3.3,7.7,1,1,2.976
10,SimB1,185,7.4,3.5,5.5,5.4,7.5,3.4,2,1,0.799
10,SimA2,186,3.5,7.6,5.5,5.6,5.6,5.5,3,1,7.128
10,SimA2,187,3.7,7.5,5.7,5.5,5.8,5.4,3,2,9.344
10,SimB1,190,7.6,3.6,5.7,5.5,7.8,3.4,2,2,17.918
10,SimA1,191,3.4,7.5,5.4,5.5,3.2,7.7,3,2,6.593
10,SimA2,193,3.6,7.5,5.5,5.6,5.6,5.5,3,1,6.095
10,SimA1,194,3.7,7.5,5.6,5.6,3.6,7.6,1,3,5.487
10,SimB2,195,7.4,3.5,5.4,5.5,5.2,5.7,2,1,9.104
10,SimA1,197,3.5,7.5,5.5,5.5,3.3,7.7,1,1,4.574
10,SimB2,198,7.6,3.5,5.5,5.6,5.3,5.8,2,2,3.503
10,SimB2,199,7.6,3.4,5.6,5.4,5.4,5.6,3,3,1.519
10,SimA1,201,3.6,7.4,5.5,5.5,3.5,7.5,2,1,1.152
10,SimB1,205,7.6,3.6,5.6,5.6,7.7,3.5,3,2,4.784
10,SimA2,206,3.7,7.3,5.6,5.4,5.8,5.2,1,2,14.286
10,SimB2,211,7.6,3.4,5.5,5.5,5.3,5.7,1,1,6.972
10,SimA1,213,3.3,7.5,5.3,5.5,3.1,7.7,2,3,11.358
10,SimB2,215,7.6,3.4,5.5,5.5,5.4,5.6,2,1,3.859
10,SimB1,216,7.6,3.4,5.5,5.5,7.8,3.2,3,2,6.162
10,SimA2,217,3.5,7.7,5.6,5.6,5.8,5.4,1,1,8.19
10,SimB2,218,7.6,3.4,5.5,5.5,5.4,5.6,2,2,4.591
10,SimA2,220,3.4,7.6,5.5,5.5,5.6,5.4,1,1,5.15
10,SimB1,221,7.7,3.5,5.6,5.6,7.9,3.3,2,1,7.503
10,SimA2,223,3.4,7.6,5.5,5.5,5.7,5.3,2,3,7.022
10,SimA2,224,3.3,7.5,5.4,5.4,5.6,5.2,3,1,4.653
10,SimA1,226,3.6,7.3,5.5,5.4,3.4,7.5,2,3,7.405
10,SimA2,227,3.4,7.6,5.4,5.6,5.5,5.5,3,2,4.962
10,SimA2,228,3.5,7.5,5.4,5.6,5.5,5.5,1,2,3.999
10,SimA1,229,3.4,7.6,5.4,5.6,3.3,7.7,2,3,4.321
10,SimB1,231,7.4,3.5,5.5,5.4,7.5,3.4,3,3,3.855
10,SimA1,232,3.5,7.5,5.5,5.5,3.4,7.6,1,3,4.384
10,SimB2,233,7.6,3.4,5.5,5.5,5.4,5.6,2,3,7.438
10,SimB1,238,7.4,3.6,5.5,5.5,7.6,3.4,1,3,3.247
10,SimB1,239,7.6,3.4,5.5,5.5,7.7,3.3,2,2,3.409
11,SimB2,2,7.4,3.6,5.4,5.6,5.2,5.8,2,3,41.489
11,SimB1,3,7.3,3.6,5.4,5.5,7.5,3.4,1,1,19.346
11,SimB2,4,7.6,3.4,5.6,5.4,5.4,5.6,3,1,27.557
11,SimA1,6,3.6,7.3,5.5,5.4,3.4,7.5,3,3,28.689
11,SimA2,7,3.5,7.6,5.5,5.6,5.6,5.5,2,1,17.411
11,SimA1,13,3.3,7.5,5.3,5.5,3.1,7.7,1,1,28.018
11,SimB1,14,7.6,3.6,5.7,5.5,7.8,3.4,3,3,31.667
11,SimA1,16,3.7,7.5,5.6,5.6,3.5,7.7,3,2,24.305
11,SimA1,18,3.5,7.7,5.6,5.6,3.4,7.8,1,2,25.332
11,SimA2,19,3.3,7.5,5.3,5.5,5.5,5.3,2,1,10.785
11,SimB2,20,7.5,3.4,5.5,5.4,5.3,5.6,2,1,14.162
11,SimA2,26,3.7,7.5,5.6,5.6,5.7,5.5,1,3,25.281
11,SimB1,27,7.6,3.4,5.6,5.4,7.8,3.2,2,2,18.112
11,SimA2,29,3.5,7.5,5.5,5.5,5.6,5.4,3,3,11.952
11,SimB1,31,7.3,3.6,5.4,5.5,7.5,3.4,1,3,29.777
11,SimA1,32,3.4,7.6,5.5,5.5,3.2,7.8,2,2,13.198
11,SimA1,39,3.3,7.6,5.4,5.5,3.1,7.8,2,2,33.247
11,SimA1,42,3.6,7.4,5.5,5.5,3.5,7.5,1,2,12.527
11,SimB2,43,7.4,3.5,5.5,5.4,5.3,5.6,3,1,20.817
11,SimA1,44,3.6,7.6,5.6,5.6,3.5,7.7,1,1,19.295
11,SimB1,45,7.4,3.6,5.4,5.6,7.5,3.5,2,1,51.587
11,SimA2,46,3.7,7.5,5.6,5.6,5.8,5.4,2,3,9.981
11,SimB1,52,7.4,3.5,5.5,5.4,7.5,3.4,1,2,23.392
11,SimB1,53,7.7,3.5,5.6,5.6,7.8,3.4,3,3,24.753
11,SimA2,54,3.3,7.6,5.4,5.5,5.5,5.4,3,1,12.099
11,SimB1,57,7.6,3.3,5.5,5.4,7.7,3.2,2,3,13.632
11,SimB2,58,7.3,3.5,5.3,5.5,5.1,5.7,2,3,47.905
11,SimA2,60,3.7,7.5,5.7,5.5,5.8,5.4,2,3,17.394
11,SimA2,62,3.6,7.5,5.5,5.6,5.6,5.5,2,2,19.894
11,SimB2,63,7.6,3.5,5.5,5.6,5.3,5.8,1,2,25.518
11,SimA1,64,3.4,7.6,5.5,5.5,3.3,7.7,3,3,21.874
11,SimB1,67,7.4,3.5,5.4,5.5,7.5,3.4,3,3,12.594
11,SimB2,69,7.6,3.4,5.5,5.5,5.3,5.7,2,3,9.551
11,SimA1,70,3.7,7.5,5.6,5.6,3.6,7.6,3,3,31.075
11,SimB2,73,7.5,3.3,5.4,5.4,5.3,5.5,1,1,17.682
11,SimB2,74,7.5,3.6,5.5,5.6,5.4,5.7,2,3,27.598
11,SimB1,76,7.5,3.5,5.5,5.5,7.6,3.4,2,1,8.032
11,SimB1,78,7.7,3.5,5.6,5.6,7.9,3.3,1,3,8.099
11,SimB1,79,7.4,3.5,5.5,5.4,7.5,3.4,1,3,13.136
11,SimB2,80,7.6,3.5,5.5,5.6,5.3,5.8,3,3,20.654
11,SimB2,84,7.4,3.5,5.4,5.5,5.2,5.7,2,2,19.328
11,SimB2,87,7.6,3.4,5.5,5.5,5.4,5.6,3,1,13.137
11,SimB1,88,7.6,3.6,5.6,5.6,7.8,3.4,2,3,7.439
11,SimA2,90,3.4,7.6,5.5,5.5,5.6,5.4,3,2,12.161
11,SimB1,92,7.3,3.7,5.4,5.6,7.5,3.5,2,2,18.368
11,SimA1,93,3.5,7.6,5.5,5.6,3.4,7.7,2,2,16.205
11,SimB2,94,7.6,3.4,5.5,5.5,5.4,5.6,1,2,7.345
11,SimB2,97,7.6,3.6,5.6,5.6,5.4,5.8,1,2,10.575
11,SimA1,100,3.4,7.5,5.4,5.5,3.3,7.6,2,2,6.19
11,SimB1,103,7.6,3.6,5.6,5.6,7.7,3.5,3,2,40.207
11,SimA2,105,3.4,7.6,5.4,5.6,5.5,5.5,1,3,7.902
11,SimA2,107,3.5,7.5,5.4,5.6,5.5,5.5,1,3,6.574
11,SimB1,108,7.6,3.4,5.5,5.5,7.7,3.3,2,3,12.787
11,SimA1,109,3.5,7.6,5.5,5.6,3.4,7.7,3,2,18.766
11,SimA1,112,3.4,7.5,5.4,5.5,3.2,7.7,3,2,17.998
11,SimA1,113,3.5,7.5,5.4,5.6,3.3,7.7,3,2,5.843
11,SimB2,116,7.5,3.5,5.5,5.5,5.4,5.6,2,2,19.408
11,SimA2,117,3.6,7.3,5.5,5.4,5.7,5.2,3,3,18.222
11,SimB1,119,7.4,3.6,5.4,5.6,7.6,3.4,2,2,10.113
11,SimA2,120,3.5,7.5,5.5,5.5,5.6,5.4,1,2,10.833
11,SimB2,126,7.3,3.6,5.4,5.5,5.3,5.6,1,2,9.902
11,SimB1,128,7.5,3.3,5.4,5.4,7.6,3.2,2,3,17.392
11,SimB1,132,7.5,3.6,5.5,5.6,7.6,3.5,1,2,7.313
11,SimA1,133,3.4,7.5,5.5,5.4,3.2,7.7,3,2,10.034
11,SimB2,135,7.6,3.4,5.5,5.5,5.4,5.6,2,2,6.989
11,SimA1,136,3.5,7.5,5.5,5.5,3.4,7.6,3,2,6.687
11,SimB2,140,7.6,3.6,5.7,5.5,5.6,5.6,3,3,8.529
11,SimA2,142,3.5,7.5,5.5,5.5,5.6,5.4,3,2,6.063
11,SimB2,143,7.7,3.5,5.6,5.6,5.4,5.8,2,2,13.426
11,SimB1,145,7.6,3.4,5.5,5.5,7.8,3.2,3,2,5.219
11,SimB1,147,7.6,3.5,5.5,5.6,7.8,3.3,3,2,7.583
11,SimB2,151,7.4,3.6,5.5,5.5,5.4,5.6,3,2,10.738
11,SimA2,152,3.6,7.4,5.5,5.5,5.7,5.3,2,2,10.098
11,SimA1,154,3.7,7.3,5.6,5.4,3.5,7.5,2,2,5.134
11,SimB2,156,7.6,3.4,5.5,5.5,5.4,5.6,1,2,8.833
11,SimA1,161,3.6,7.3,5.5,5.4,3.4,7.5,3,2,9.454
11,SimA1,162,3.6,7.3,5.5,5.4,3.4,7.5,3,2,9.936
11,SimA2,164,3.5,7.7,5.6,5.6,5.8,5.4,1,2,19.921
11,SimA2,165,3.4,7.5,5.5,5.4,5.7,5.2,2,2,5.855
11,SimA2,166,3.6,7.6,5.6,5.6,5.8,5.4,3,2,7.968
11,SimA2,167,3.5,7.5,5.4,5.6,5.5,5.5,1,3,7.118
11,SimB1,169,7.5,3.4,5.5,5.4,7.7,3.2,2,2,8.175
11,SimB1,171,7.4,3.6,5.5,5.5,7.6,3.4,1,2,11.405
11,SimA1,173,3.7,7.5,5.7,5.5,3.6,7.6,3,2,5.342
11,SimA1,174,3.4,7.6,5.4,5.6,3.3,7.7,2,2,5.233
11,SimB1,176,7.6,3.5,5.5,5.6,7.8,3.3,3,2,5.136
11,SimB1,178,7.6,3.4,5.5,5.5,7.7,3.3,3,2,4.03
11,SimB2,181,7.3,3.6,5.4,5.5,5.2,5.7,1,2,6.878
11,SimA2,184,3.4,7.5,5.4,5.5,5.6,5.3,3,1,2.272
11,SimA2,185,3.5,7.6,5.5,5.6,5.6,5.5,3,1,1.491
11,SimA2,186,3.4,7.6,5.5,5.5,5.7,5.3,2,1,5.878
11,SimA1,187,3.5,7.5,5.5,5.5,3.3,7.7,2,3,4.592
11,SimA1,189,3.5,7.5,5.5,5.5,3.3,7.7,3,2,4.736
11,SimB1,190,7.6,3.5,5.5,5.6,7.7,3.4,3,3,8.831
11,SimB2,195,7.3,3.7,5.4,5.6,5.2,5.8,2,2,6.961
11,SimB1,197,7.6,3.4,5.5,5.5,7.7,3.3,3,2,4.286
11,SimA2,199,3.3,7.5,5.4,5.4,5.6,5.2,2,2,6.929
11,SimB2,200,7.7,3.5,5.6,5.6,5.4,5.8,1,2,3.952
11,SimA1,201,3.6,7.5,5.5,5.6,3.4,7.7,3,2,8.354
11,SimA1,204,3.6,7.3,5.5,5.4,3.4,7.5,2,2,6.657
11,SimA1,206,3.4,7.7,5.5,5.6,3.2,7.9,2,2,4.701
11,SimB2,207,7.4,3.5,5.5,5.4,5.4,5.5,1,2,8.209
11,SimB1,208,7.3,3.5,5.3,5.5,7.5,3.3,2,2,4.816
11,SimB2,209,7.6,3.3,5.5,5.4,5.3,5.6,1,2,7.602
11,SimA2,210,3.6,7.3,5.5,5.4,5.6,5.3,2,3,9.023
11,SimA1,215,3.5,7.5,5.4,5.6,3.3,7.7,3,2,3.824
11,SimA2,216,3.4,7.5,5.4,5.5,5.6,5.3,3,1,11.662
11,SimB1,218,7.6,3.4,5.5,5.5,7.8,3.2,2,3,2.449
11,SimA2,219,3.7,7.3,5.6,5.4,5.8,5.2,2,1,2.43
11,SimA1,220,3.5,7.5,5.5,5.5,3.3,7.7,2,3,2.464
11,SimA2,221,3.5,7.5,5.5,5.5,5.6,5.4,2,1,2.962
11,SimA2,224,3.6,7.3,5.5,5.4,5.7,5.2,2,2,12.623
11,SimA1,225,3.3,7.5,5.4,5.4,3.2,7.6,2,2,4.687
11,SimB2,226,7.6,3.6,5.6,5.6,5.4,5.8,3,2,9.536
11,SimB2,227,7.5,3.4,5.5,5.4,5.3,5.6,2,2,5.007
11,SimB1,228,7.5,3.4,5.5,5.4,7.6,3.3,1,2,6.815
11,SimB2,230,7.4,3.6,5.4,5.6,5.2,5.8,1,2,7.903
11,SimA2,231,3.4,7.7,5.5,5.6,5.6,5.5,2,2,10.525
11,SimB2,233,7.6,3.5,5.5,5.6,5.4,5.7,3,2,14.56
11,SimA2,239,3.6,7.3,5.5,5.4,5.6,5.3,1,2,4.703
12,SimB2,1,7.6,3.4,5.6,5.4,5.4,5.6,2,1,37.351
12,SimA1,2,3.4,7.6,5.5,5.5,3.2,7.8,2,2,17.811
12,SimA1,3,3.4,7.5,5.5,5.4,3.2,7.7,1,2,14.897
12,SimB2,4,7.4,3.5,5.5,5.4,5.4,5.5,3,1,11.746
12,SimA2,5,3.5,7.5,5.5,5.5,5.6,5.4,1,2,7.571
12,SimA2,6,3.7,7.3,5.6,5.4,5.8,5.2,1,3,10.949
12,SimA1,8,3.4,7.5,5.4,5.5,3.2,7.7,3,2,18.228
12,SimA2,9,3.5,7.6,5.5,5.6,5.6,5.5,3,1,5.077
12,SimB1,10,7.6,3.5,5.5,5.6,7.7,3.4,3,2,6.944
12,SimA1,12,3.7,7.5,5.6,5.6,3.5,7.7,1,2,6.963
12,SimB2,15,7.7,3.5,5.6,5.6,5.4,5.8,3,2,14.355
12,SimB2,17,7.6,3.5,5.5,5.6,5.3,5.8,3,3,10.355
12,SimA2,18,3.5,7.7,5.6,5.6,5.8,5.4,1,1,4.691
12,SimA2,20,3.4,7.5,5.4,5.5,5.6,5.3,1,2,9.668
12,SimA2,21,3.4,7.7,5.5,5.6,5.6,5.5,1,1,5.121
12,SimB1,24,7.6,3.5,5.5,5.6,7.8,3.3,1,3,36.514
12,SimB2,28,7.4,3.5,5.4,5.5,5.2,5.7,3,2,7.936
12,SimA2,30,3.6,7.5,5.5,5.6,5.6,5.5,1,1,9.315
12,SimB1,33,7.6,3.4,5.5,5.5,7.8,3.2,1,2,4.032
12,SimB2,35,7.7,3.5,5.6,5.6,5.4,5.8,2,2,7.249
12,SimA2,36,3.6,7.3,5.5,5.4,5.7,5.2,3,3,14.447
12,SimB1,37,7.4,3.6,5.4,5.6,7.5,3.5,2,2,8.368
12,SimB1,38,7.3,3.6,5.4,5.5,7.5,3.4,2,2,15.553
12,SimB1,39,7.4,3.5,5.4,5.5,7.5,3.4,2,2,8.336
12,SimA1,40,3.5,7.5,5.4,5.6,3.3,7.7,2,2,4.079
12,SimA1,41,3.4,7.6,5.4,5.6,3.3,7.7,3,2,4.509
12,SimA2,42,3.4,7.6,5.5,5.5,5.6,5.4,2,2,5.713
12,SimB2,43,7.3,3.5,5.3,5.5,5.1,5.7,1,1,9.693
12,SimA1,45,3.5,7.5,5.4,5.6,3.3,7.7,3,2,3.071
12,SimB1,46,7.4,3.6,5.5,5.5,7.6,3.4,2,2,2.639
12,SimB1,48,7.3,3.6,5.4,5.5,7.5,3.4,1,2,3.566
12,SimA1,49,3.3,7.5,5.3,5.5,3.1,7.7,2,2,2.195
12,SimA2,50,3.6,7.3,5.5,5.4,5.6,5.3,2,2,2.703
12,SimA2,52,3.5,7.5,5.5,5.5,5.6,5.4,3,2,7.312
12,SimB2,54,7.6,3.5,5.5,5.6,5.4,5.7,2,1,5.6
12,SimB1,56,7.6,3.3,5.5,5.4,7.7,3.2,2,2,5.198
12,SimA2,57,3.7,7.5,5.7,5.5,5.8,5.4,3,3,5.038
12,SimA1,58,3.5,7.5,5.5,5.5,3.3,7.7,3,2,5.679
12,SimB2,60,7.4,3.6,5.4,5.6,5.2,5.8,3,2,4.589
12,SimB2,65,7.3,3.6,5.4,5.5,5.3,5.6,1,1,7.07
12,SimA2,67,3.6,7.3,5.5,5.4,5.7,5.2,1,3,7.25
12,SimB1,69,7.4,3.6,5.4,5.6,7.6,3.4,3,2,2.879
12,SimB2,70,7.4,3.5,5.5,5.4,5.3,5.6,3,2,6.351
12,SimA1,71,3.7,7.3,5.6,5.4,3.5,7.5,2,2,6.111
12,SimA1,72,3.5,7.6,5.5,5.6,3.4,7.7,1,2,2.162
12,SimB2,73,7.6,3.4,5.5,5.5,5.4,5.6,1,2,3.919
12,SimA2,76,3.5,7.6,5.5,5.6,5.6,5.5,1,1,3.377
12,SimB1,77,7.5,3.5,5.5,5.5,7.6,3.4,2,2,7.696
12,SimA2,79,3.3,7.5,5.4,5.4,5.6,5.2,1,3,7.856
12,SimA2,80,3.6,7.3,5.5,5.4,5.6,5.3,1,2,4.495
12,SimB2,81,7.5,3.5,5.5,5.5,5.4,5.6,1,1,6.062
12,SimA1,82,3.5,7.5,5.5,5.5,3.3,7.7,3,2,4.339
12,SimB1,83,7.4,3.5,5.5,5.4,7.5,3.4,3,2,3.886
12,SimA2,85,3.5,7.5,5.5,5.5,5.6,5.4,3,3,3.872
12,SimA2,93,3.7,7.5,5.6,5.6,5.7,5.5,2,1,7.327
12,SimB2,95,7.5,3.4,5.5,5.4,5.3,5.6,2,2,3.71
12,SimB1,96,7.7,3.5,5.6,5.6,7.8,3.4,1,2,4.497
12,SimB2,97,7.6,3.4,5.5,5.5,5.4,5.6,1,2,3.312
12,SimB1,98,7.3,3.5,5.3,5.5,7.5,3.3,1,2,7.074
12,SimA1,99,3.6,7.3,5.5,5.4,3.4,7.5,2,2,7.104
12,SimA2,102,3.5,7.5,5.4,5.6,5.5,5.5,2,3,3.043
12,SimA1,103,3.6,7.3,5.5,5.4,3.4,7.5,1,2,7.565
12,SimA1,104,3.3,7.5,5.4,5.4,3.2,7.6,3,2,3.088
12,SimB2,105,7.5,3.6,5.5,5.6,5.4,5.7,3,1,7.698
12,SimB1,111,7.7,3.5,5.6,5.6,7.9,3.3,1,2,2.958
12,SimB2,113,7.4,3.6,5.5,5.5,5.4,5.6,2,1,7.165
12,SimA2,115,3.3,7.6,5.4,5.5,5.5,5.4,2,1,5.949
12,SimB1,122,7.5,3.4,5.5,5.4,7.6,3.3,2,2,13.975
12,SimB1,123,7.6,3.4,5.5,5.5,7.7,3.3,2,2,7.344
12,SimA2,125,3.4,7.6,5.5,5.5,5.7,5.3,1,3,2.703
12,SimB2,129,7.4,3.6,5.4,5.6,5.2,5.8,2,1,6.655
12,SimA1,134,3.4,7.6,5.5,5.5,3.3,7.7,1,2,2.224
12,SimB2,136,7.6,3.5,5.5,5.6,5.3,5.8,2,2,8.016
12,SimB2,137,7.5,3.3,5.4,5.4,5.3,5.5,1,1,5.502
12,SimA1,138,3.6,7.4,5.5,5.5,3.5,7.5,2,2,7.407
12,SimA2,139,3.4,7.5,5.4,5.5,5.6,5.3,3,2,11.791
12,SimB2,143,7.6,3.3,5.5,5.4,5.3,5.6,1,1,13.984
12,SimA1,144,3.5,7.5,5.5,5.5,3.3,7.7,2,2,3.615
12,SimA2,146,3.4,7.6,5.4,5.6,5.5,5.5,1,1,6.449
12,SimA1,147,3.5,7.6,5.5,5.6,3.4,7.7,2,2,1.487
12,SimB2,150,7.6,3.4,5.5,5.5,5.4,5.6,1,1,3.871
12,SimA2,151,3.7,7.5,5.6,5.6,5.8,5.4,1,2,5.55
12,SimA1,153,3.6,7.3,5.5,5.4,3.4,7.5,2,1,5.969
12,SimB2,157,7.3,3.6,5.4,5.5,5.2,5.7,3,3,5.233
12,SimB1,160,7.5,3.6,5.5,5.6,7.6,3.5,3,3,3.663
12,SimB2,161,7.6,3.6,5.6,5.6,5.4,5.8,1,1,9.088
12,SimB2,162,7.6,3.4,5.5,5.5,5.3,5.7,1,1,5.84
12,SimB2,163,7.5,3.4,5.5,5.4,5.3,5.6,1,2,5.217
12,SimB1,164,7.6,3.4,5.5,5.5,7.8,3.2,3,2,16.351
12,SimA1,168,3.6,7.6,5.6,5.6,3.5,7.7,1,2,2.319
12,SimA1,172,3.4,7.7,5.5,5.6,3.2,7.9,3,2,2.241
12,SimA1,173,3.6,7.3,5.5,5.4,3.4,7.5,3,2,1.731
12,SimA2,176,3.4,7.5,5.5,5.4,5.7,5.2,3,3,2.335
12,SimA1,177,3.3,7.6,5.4,5.5,3.1,7.8,3,2,2.945
12,SimA2,178,3.6,7.4,5.5,5.5,5.7,5.3,2,3,2.4
12,SimB1,182,7.3,3.7,5.4,5.6,7.5,3.5,2,2,13.333
12,SimA1,184,3.5,7.5,5.5,5.5,3.4,7.6,3,2,1.279
12,SimA1,185,3.7,7.5,5.6,5.6,3.6,7.6,3,2,2.918
12,SimB2,188,7.3,3.7,5.4,5.6,5.2,5.8,3,1,8.831
12,SimB1,189,7.6,3.4,5.6,5.4,7.8,3.2,3,2,4.0
12,SimB2,190,7.6,3.4,5.5,5.5,5.4,5.6,1,1,4.223
12,SimA1,196,3.5,7.7,5.6,5.6,3.4,7.8,1,2,3.229
12,SimB2,201,7.6,3.6,5.6,5.6,5.4,5.8,2,3,7.298
12,SimB1,202,7.6,3.4,5.5,5.5,7.7,3.3,2,1,3.917
12,SimA2,205,3.3,7.5,5.3,5.5,5.5,5.3,1,2,4.928
12,SimB1,206,7.6,3.4,5.5,5.5,7.7,3.3,2,2,4.286
12,SimB1,207,7.6,3.6,5.7,5.5,7.8,3.4,2,3,5.377
12,SimB1,210,7.6,3.6,5.6,5.6,7.8,3.4,1,2,2.989
12,SimB2,211,7.6,3.6,5.7,5.5,5.6,5.6,2,2,3.809
12,SimA1,212,3.7,7.5,5.7,5.5,3.6,7.6,3,2,6.576
12,SimB1,216,7.6,3.5,5.5,5.6,7.8,3.3,3,2,5.007
12,SimB1,218,7.5,3.3,5.4,5.4,7.6,3.2,2,2,3.31
12,SimA2,220,3.6,7.6,5.6,5.6,5.8,5.4,1,3,4.927
12,SimB1,222,7.6,3.6,5.6,5.6,7.7,3.5,3,1,3.584
12,SimA2,223,3.5,7.5,5.4,5.6,5.5,5.5,1,3,2.877
12,SimB1,225,7.5,3.4,5.5,5.4,7.7,3.2,2,3,5.457
12,SimB1,229,7.4,3.5,5.5,5.4,7.5,3.4,2,2,5.821
12,SimA2,232,3.5,7.5,5.5,5.5,5.6,5.4,1,1,3.008
12,SimA1,235,3.6,7.5,5.5,5.6,3.4,7.7,2,2,6.528
12,SimA1,238,3.4,7.5,5.4,5.5,3.3,7.6,1,2,1.953
13,SimA2,2,3.4,7.5,5.5,5.4,5.7,5.2,1,2,82.672
13,SimA2,3,3.5,7.7,5.6,5.6,5.8,5.4,2,3,27.777
13,SimB1,4,7.4,3.5,5.5,5.4,7.5,3.4,1,2,23.749
13,SimA1,5,3.3,7.5,5.3,5.5,3.1,7.7,1,2,17.459
13,SimB1,6,7.6,3.4,5.5,5.5,7.7,3.3,3,2,12.034
13,SimB1,8,7.5,3.4,5.5,5.4,7.6,3.3,2,2,6.292
13,SimA2,9,3.5,7.5,5.5,5.5,5.6,5.4,3,3,9.186
13,SimA2,10,3.7,7.5,5.7,5.5,5.8,5.4,1,3,21.794
13,SimB1,12,7.5,3.6,5.5,5.6,7.6,3.5,3,2,5.683
13,SimB1,13,7.6,3.5,5.5,5.6,7.7,3.4,3,2,7.844
13,SimB1,14,7.3,3.5,5.3,5.5,7.5,3.3,2,2,4.112
13,SimA2,15,3.3,7.5,5.3,5.5,5.5,5.3,2,1,25.989
13,SimA1,17,3.3,7.5,5.4,5.4,3.2,7.6,2,2,6.596
13,SimA2,19,3.4,7.6,5.5,5.5,5.6,5.4,3,2,14.067
13,SimA2,21,3.5,7.5,5.4,5.6,5.5,5.5,2,3,8.645
13,SimB2,22,7.5,3.6,5.5,5.6,5.4,5.7,2,2,23.152
13,SimA2,27,3.6,7.6,5.6,5.6,5.8,5.4,1,2,19.855
13,SimA2,29,3.3,7.6,5.4,5.5,5.5,5.4,1,1,14.704
13,SimA2,30,3.5,7.6,5.5,5.6,5.6,5.5,1,1,4.126
13,SimB2,35,7.5,3.4,5.5,5.4,5.3,5.6,1,1,19.902
13,SimB1,36,7.4,3.6,5.4,5.6,7.6,3.4,1,2,12.495
13,SimB2,38,7.5,3.5,5.5,5.5,5.4,5.6,2,2,15.407
13,SimA1,43,3.4,7.6,5.4,5.6,3.3,7.7,1,2,6.865
13,SimB1,44,7.6,3.3,5.5,5.4,7.7,3.2,1,2,3.454
13,SimB2,45,7.7,3.5,5.6,5.6,5.4,5.8,2,2,5.698
13,SimB1,47,7.6,3.6,5.6,5.6,7.7,3.5,2,2,8.464
13,SimA1,48,3.5,7.5,5.4,5.6,3.3,7.7,1,2,13.455
13,SimB1,50,7.6,3.5,5.5,5.6,7.8,3.3,2,2,7.054
13,SimA1,51,3.6,7.4,5.5,5.5,3.5,7.5,3,2,13.997
13,SimA1,52,3.7,7.3,5.6,5.4,3.5,7.5,3,2,3.554
13,SimA1,53,3.5,7.7,5.6,5.6,3.4,7.8,1,2,2.302
13,SimB1,54,7.6,3.4,5.5,5.5,7.8,3.2,3,2,5.297
13,SimB2,56,7.6,3.4,5.5,5.5,5.4,5.6,1,1,7.584
13,SimB1,61,7.7,3.5,5.6,5.6,7.8,3.4,1,2,11.552
13,SimA2,63,3.5,7.5,5.4,5.6,5.5,5.5,3,1,6.831
13,SimA1,65,3.6,7.3,5.5,5.4,3.4,7.5,1,2,9.841
13,SimB1,66,7.6,3.4,5.6,5.4,7.8,3.2,1,2,13.726
13,SimA1,69,3.7,7.5,5.6,5.6,3.5,7.7,1,2,4.447
13,SimB2,70,7.3,3.6,5.4,5.5,5.3,5.6,1,1,9.089
13,SimB2,71,7.6,3.4,5.5,5.5,5.4,5.6,3,1,7.011
13,SimB1,74,7.3,3.6,5.4,5.5,7.5,3.4,1,2,11.184
13,SimB1,75,7.6,3.4,5.5,5.5,7.8,3.2,2,2,10.846
13,SimB2,77,7.6,3.6,5.7,5.5,5.6,5.6,2,1,11.04
13,SimA2,80,3.6,7.5,5.5,5.6,5.6,5.5,3,1,6.752
13,SimA1,84,3.4,7.5,5.4,5.5,3.2,7.7,2,2,6.13
13,SimB2,85,7.3,3.6,5.4,5.5,5.2,5.7,2,3,13.28
13,SimB2,88,7.6,3.4,5.5,5.5,5.3,5.7,3,2,17.247
13,SimA2,89,3.6,7.3,5.5,5.4,5.7,5.2,1,3,14.224
13,SimB1,90,7.5,3.4,5.5,5.4,7.7,3.2,3,2,5.791
13,SimB2,91,7.7,3.5,5.6,5.6,5.4,5.8,3,2,3.327
13,SimA2,93,3.4,7.7,5.5,5.6,5.6,5.5,1,1,9.841
13,SimA1,94,3.5,7.5,5.4,5.6,3.3,7.7,3,2,4.895
13,SimA2,95,3.6,7.3,5.5,5.4,5.6,5.3,2,1,17.631
13,SimB2,96,7.4,3.5,5.5,5.4,5.4,5.5,3,1,3.937
13,SimA1,102,3.5,7.5,5.5,5.5,3.3,7.7,3,2,7.967
13,SimB2,104,7.6,3.4,5.5,5.5,5.4,5.6,3,1,3.233
13,SimB1,112,7.3,3.7,5.4,5.6,7.5,3.5,3,2,9.84
13,SimB1,113,7.6,3.6,5.7,5.5,7.8,3.4,3,3,5.296
13,SimB1,114,7.5,3.3,5.4,5.4,7.6,3.2,2,2,6.016
13,SimA1,115,3.4,7.5,5.4,5.5,3.3,7.6,1,2,4.096
13,SimA1,118,3.4,7.5,5.5,5.4,3.2,7.7,2,2,3.44
13,SimB1,119,7.5,3.5,5.5,5.5,7.6,3.4,1,2,2.049
13,SimA1,121,3.5,7.5,5.5,5.5,3.4,7.6,2,2,2.752
13,SimA2,122,3.5,7.5,5.5,5.5,5.6,5.4,3,1,11.399
13,SimA2,123,3.6,7.3,5.5,5.4,5.7,5.2,1,3,6.045
13,SimA2,125,3.7,7.3,5.6,5.4,5.8,5.2,3,3,24.637
13,SimA1,127,3.3,7.6,5.4,5.5,3.1,7.8,2,3,3.088
13,SimB2,129,7.5,3.4,5.5,5.4,5.3,5.6,2,1,5.874
13,SimA1,130,3.6,7.5,5.5,5.6,3.4,7.7,2,2,2.048
13,SimB1,131,7.4,3.6,5.5,5.5,7.6,3.4,1,2,4.845
13,SimB2,133,7.6,3.6,5.6,5.6,5.4,5.8,3,1,12.45
13,SimB2,141,7.6,3.5,5.5,5.6,5.3,5.8,2,1,8.721
13,SimB1,143,7.3,3.6,5.4,5.5,7.5,3.4,3,2,8.002
13,SimA2,149,3.7,7.5,5.6,5.6,5.7,5.5,3,2,4.304
13,SimA2,152,3.7,7.5,5.6,5.6,5.8,5.4,3,1,13.152
13,SimB2,153,7.3,3.5,5.3,5.5,5.1,5.7,3,3,7.806
13,SimA1,155,3.6,7.3,5.5,5.4,3.4,7.5,1,2,8.579
13,SimB1,156,7.6,3.4,5.5,5.5,7.7,3.3,1,2,10.414
13,SimA1,158,3.7,7.5,5.6,5.6,3.6,7.6,1,2,7.167
13,SimB2,159,7.6,3.4,5.5,5.5,5.4,5.6,3,1,3.728
13,SimB2,165,7.6,3.4,5.6,5.4,5.4,5.6,2,1,3.758
13,SimB1,166,7.6,3.6,5.6,5.6,7.8,3.4,3,3,5.696
13,SimA2,167,3.5,7.5,5.5,5.5,5.6,5.4,2,1,4.877
13,SimA1,169,3.4,7.7,5.5,5.6,3.2,7.9,1,2,13.694
13,SimA1,174,3.5,7.5,5.5,5.5,3.3,7.7,2,2,3.072
13,SimA1,175,3.5,7.6,5.5,5.6,3.4,7.7,1,2,4.192
13,SimB1,176,7.4,3.5,5.4,5.5,7.5,3.4,3,2,5.247
13,SimB1,177,7.6,3.5,5.5,5.6,7.8,3.3,2,3,3.262
13,SimA1,178,3.4,7.6,5.5,5.5,3.2,7.8,2,3,6.129
13,SimB2,179,7.6,3.5,5.5,5.6,5.3,5.8,2,1,2.878
13,SimB2,181,7.4,3.6,5.4,5.6,5.2,5.8,3,1,13.584
13,SimA1,182,3.4,7.6,5.5,5.5,3.3,7.7,2,2,11.83
13,SimA1,183,3.5,7.5,5.5,5.5,3.3,7.7,3,2,2.863
13,SimB2,184,7.3,3.7,5.4,5.6,5.2,5.8,3,1,5.166
13,SimA2,190,3.6,7.3,5.5,5.4,5.6,5.3,3,1,24.513
13,SimA2,192,3.4,7.5,5.4,5.5,5.6,5.3,1,1,9.057
13,SimB2,193,7.6,3.3,5.5,5.4,5.3,5.6,1,1,13.202
13,SimA2,194,3.3,7.5,5.4,5.4,5.6,5.2,3,1,4.913
13,SimB1,196,7.6,3.4,5.5,5.5,7.7,3.3,2,1,8.796
13,SimB1,198,7.4,3.5,5.5,5.4,7.5,3.4,1,2,10.529
13,SimB1,200,7.7,3.5,5.6,5.6,7.9,3.3,3,2,5.04
13,SimA2,201,3.4,7.6,5.5,5.5,5.7,5.3,3,1,13.809
13,SimA1,205,3.6,7.6,5.6,5.6,3.5,7.7,1,2,5.711
13,SimA1,207,3.6,7.3,5.5,5.4,3.4,7.5,2,2,9.343
13,SimA1,208,3.5,7.6,5.5,5.6,3.4,7.7,3,2,5.232
13,SimA1,209,3.7,7.5,5.7,5.5,3.6,7.6,3,2,16.61
13,SimA2,214,3.6,7.4,5.5,5.5,5.7,5.3,1,1,10.403
13,SimA1,216,3.6,7.3,5.5,5.4,3.4,7.5,2,2,19.04
13,SimA2,218,3.5,7.6,5.5,5.6,5.6,5.5,3,1,7.024
13,SimB2,219,7.6,3.6,5.6,5.6,5.4,5.8,3,1,6.526
13,SimA2,220,3.4,7.5,5.4,5.5,5.6,5.3,2,1,5.043
13,SimB2,223,7.4,3.6,5.4,5.6,5.2,5.8,3,1,16.624
13,SimA2,224,3.4,7.6,5.4,5.6,5.5,5.5,3,1,6.417
13,SimB2,225,7.6,3.5,5.5,5.6,5.4,5.7,1,1,4.671
13,SimB2,227,7.5,3.3,5.4,5.4,5.3,5.5,3,1,9.266
13,SimB2,228,7.4,3.5,5.4,5.5,5.2,5.7,3,1,12.845
13,SimA2,230,3.5,7.5,5.5,5.5,5.6,5.4,3,1,14.031
13,SimB1,232,7.4,3.6,5.4,5.6,7.5,3.5,2,2,7.313
13,SimB2,237,7.4,3.6,5.5,5.5,5.4,5.6,2,1,8.545
13,SimB2,239,7.4,3.5,5.5,5.4,5.3,5.6,3,1,26.288
14,SimB1,1,7.4,3.5,5.5,5.4,7.5,3.4,1,2,79.208
14,SimA1,4,3.5,7.5,5.4,5.6,3.3,7.7,2,2,7.168
14,SimA2,5,3.4,7.7,5.5,5.6,5.6,5.5,1,1,18.498
14,SimB2,9,7.3,3.7,5.4,5.6,5.2,5.8,3,3,18.323
14,SimA1,11,3.6,7.5,5.5,5.6,3.4,7.7,3,2,10.133
14,SimB1,13,7.3,3.6,5.4,5.5,7.5,3.4,2,2,10.771
14,SimB1,14,7.4,3.6,5.4,5.6,7.6,3.4,1,2,4.961
14,SimA1,17,3.5,7.5,5.4,5.6,3.3,7.7,1,2,5.858
14,SimA2,18,3.4,7.6,5.5,5.5,5.7,5.3,2,3,6.817
14,SimB1,19,7.5,3.5,5.5,5.5,7.6,3.4,2,2,7.25
14,SimA1,22,3.7,7.3,5.6,5.4,3.5,7.5,2,2,12.418
14,SimB2,23,7.6,3.6,5.6,5.6,5.4,5.8,2,1,8.563
14,SimA2,25,3.3,7.6,5.4,5.5,5.5,5.4,3,1,11.248
14,SimB2,26,7.6,3.5,5.5,5.6,5.4,5.7,1,1,6.414
14,SimB1,27,7.6,3.3,5.5,5.4,7.7,3.2,2,2,4.161
14,SimA2,28,3.7,7.5,5.6,5.6,5.8,5.4,1,1,2.496
14,SimA1,29,3.7,7.5,5.6,5.6,3.5,7.7,1,2,6.767
14,SimA1,30,3.6,7.3,5.5,5.4,3.4,7.5,2,2,4.64
14,SimB1,31,7.4,3.6,5.5,5.5,7.6,3.4,1,2,3.104
14,SimB1,34,7.4,3.5,5.5,5.4,7.5,3.4,2,2,1.473
14,SimA2,35,3.4,7.5,5.5,5.4,5.7,5.2,1,1,5.047
14,SimA2,37,3.5,7.5,5.5,5.5,5.6,5.4,1,1,2.799
14,SimB1,38,7.6,3.4,5.5,5.5,7.7,3.3,1,2,2.446
14,SimB2,40,7.4,3.5,5.4,5.5,5.2,5.7,3,1,3.106
14,SimA2,42,3.4,7.5,5.4,5.5,5.6,5.3,2,1,5.39
14,SimB2,43,7.4,3.5,5.5,5.4,5.4,5.5,1,1,2.881
14,SimB2,44,7.5,3.6,5.5,5.6,5.4,5.7,1,1,2.973
14,SimB1,46,7.5,3.4,5.5,5.4,7.7,3.2,1,2,5.281
14,SimB2,47,7.3,3.5,5.3,5.5,5.1,5.7,2,1,2.384
14,SimA2,48,3.6,7.5,5.5,5.6,5.6,5.5,1,1,4.895
14,SimB2,51,7.5,3.4,5.5,5.4,5.3,5.6,3,1,3.615
14,SimA1,53,3.4,7.6,5.4,5.6,3.3,7.7,1,2,9.505
14,SimB2,54,7.5,3.3,5.4,5.4,5.3,5.5,1,1,3.328
14,SimA1,63,3.5,7.6,5.5,5.6,3.4,7.7,1,2,6.415
14,SimA2,64,3.5,7.7,5.6,5.6,5.8,5.4,3,3,3.583
14,SimB1,71,7.7,3.5,5.6,5.6,7.9,3.3,1,2,4.801
14,SimB1,73,7.5,3.6,5.5,5.6,7.6,3.5,3,2,5.87
14,SimA2,77,3.5,7.5,5.5,5.5,5.6,5.4,2,1,15.073
14,SimA1,78,3.4,7.6,5.5,5.5,3.2,7.8,1,2,4.001
14,SimB2,80,7.6,3.4,5.5,5.5,5.4,5.6,1,1,6.369
14,SimB1,85,7.6,3.6,5.6,5.6,7.7,3.5,3,2,10.466
14,SimB2,86,7.5,3.4,5.5,5.4,5.3,5.6,2,1,4.109
14,SimA2,88,3.6,7.3,5.5,5.4,5.7,5.2,2,1,3.342
14,SimA1,90,3.5,7.7,5.6,5.6,3.4,7.8,1,2,4.928
14,SimB2,92,7.5,3.5,5.5,5.5,5.4,5.6,1,1,3.346
14,SimB1,94,7.6,3.4,5.5,5.5,7.8,3.2,2,2,4.877
14,SimB2,95,7.6,3.3,5.5,5.4,5.3,5.6,1,1,1.934
14,SimB2,99,7.3,3.6,5.4,5.5,5.3,5.6,2,1,3.504
14,SimB1,101,7.3,3.6,5.4,5.5,7.5,3.4,2,2,3.423
14,SimB1,103,7.6,3.4,5.5,5.5,7.8,3.2,3,2,6.576
14,SimB2,104,7.4,3.6,5.5,5.5,5.4,5.6,2,1,3.649
14,SimA1,105,3.3,7.5,5.3,5.5,3.1,7.7,3,2,4.384
14,SimB1,106,7.3,3.7,5.4,5.6,7.5,3.5,2,2,3.041
14,SimB2,107,7.6,3.4,5.5,5.5,5.4,5.6,1,1,1.647
14,SimA1,111,3.3,7.6,5.4,5.5,3.1,7.8,1,2,4.689
14,SimA2,112,3.5,7.5,5.5,5.5,5.6,5.4,3,1,3.81
14,SimA1,115,3.4,7.5,5.4,5.5,3.2,7.7,2,2,7.713
14,SimB2,116,7.4,3.6,5.4,5.6,5.2,5.8,3,1,12.499
14,SimB2,118,7.3,3.6,5.4,5.5,5.2,5.7,3,1,3.311
14,SimB2,119,7.4,3.6,5.4,5.6,5.2,5.8,1,1,2.304
14,SimA2,120,3.7,7.5,5.7,5.5,5.8,5.4,3,1,2.896
14,SimA1,122,3.5,7.5,5.5,5.5,3.3,7.7,2,2,8.968
14,SimA2,124,3.7,7.5,5.6,5.6,5.7,5.5,1,1,4.035
14,SimB1,130,7.6,3.4,5.5,5.5,7.7,3.3,1,2,33.808
14,SimA2,131,3.5,7.6,5.5,5.6,5.6,5.5,2,1,3.792
14,SimA1,132,3.5,7.5,5.5,5.5,3.3,7.7,2,2,4.159
14,SimB2,134,7.6,3.5,5.5,5.6,5.3,5.8,3,1,10.8
14,SimA1,135,3.5,7.5,5.5,5.5,3.4,7.6,2,2,2.942
14,SimA2,136,3.6,7.6,5.6,5.6,5.8,5.4,3,1,7.376
14,SimB2,137,7.7,3.5,5.6,5.6,5.4,5.8,3,1,3.552
14,SimA1,141,3.6,7.3,5.5,5.4,3.4,7.5,2,1,14.735
14,SimA1,142,3.4,7.5,5.5,5.4,3.2,7.7,3,2,5.071
14,SimA2,145,3.4,7.6,5.5,5.5,5.6,5.4,1,1,5.247
14,SimB1,146,7.6,3.5,5.5,5.6,7.7,3.4,2,2,5.759
14,SimB2,148,7.6,3.6,5.6,5.6,5.4,5.8,2,1,4.094
14,SimA1,150,3.6,7.3,5.5,5.4,3.4,7.5,1,2,4.286
14,SimB1,151,7.5,3.4,5.5,5.4,7.6,3.3,1,2,1.155
14,SimB1,155,7.6,3.4,5.6,5.4,7.8,3.2,2,2,4.142
14,SimA2,156,3.4,7.6,5.4,5.6,5.5,5.5,1,1,1.823
14,SimA2,157,3.3,7.5,5.3,5.5,5.5,5.3,3,1,3.119
14,SimA1,158,3.5,7.5,5.5,5.5,3.3,7.7,2,3,2.561
14,SimA2,159,3.5,7.6,5.5,5.6,5.6,5.5,2,1,8.702
14,SimB2,161,7.6,3.6,5.7,5.5,5.6,5.6,2,1,18.991
14,SimA2,162,3.6,7.3,5.5,5.4,5.6,5.3,2,1,5.072
14,SimB1,164,7.4,3.6,5.4,5.6,7.5,3.5,3,2,5.631
14,SimA1,169,3.6,7.6,5.6,5.6,3.5,7.7,3,2,3.119
14,SimA2,174,3.6,7.3,5.5,5.4,5.6,5.3,1,1,4.08
14,SimB1,175,7.6,3.5,5.5,5.6,7.8,3.3,3,2,10.402
14,SimB2,179,7.6,3.5,5.5,5.6,5.3,5.8,1,1,4.048
14,SimA1,180,3.3,7.5,5.4,5.4,3.2,7.6,2,2,11.727
14,SimB1,181,7.4,3.5,5.4,5.5,7.5,3.4,2,2,2.191
14,SimB2,182,7.6,3.4,5.5,5.5,5.3,5.7,1,1,22.457
14,SimB1,184,7.5,3.3,5.4,5.4,7.6,3.2,2,2,4.144
14,SimB1,187,7.7,3.5,5.6,5.6,7.8,3.4,2,2,3.309
14,SimB2,188,7.6,3.4,5.5,5.5,5.4,5.6,1,1,7.121
14,SimB1,189,7.6,3.4,5.5,5.5,7.7,3.3,1,2,2.016
14,SimA1,190,3.7,7.5,5.7,5.5,3.6,7.6,3,2,3.183
14,SimA2,193,3.4,7.5,5.4,5.5,5.6,5.3,1,1,14.797
14,SimB1,194,7.6,3.6,5.6,5.6,7.8,3.4,2,2,7.731
14,SimA1,195,3.4,7.7,5.5,5.6,3.2,7.9,3,2,2.077
14,SimA2,196,3.3,7.5,5.4,5.4,5.6,5.2,2,1,2.401
14,SimA1,198,3.6,7.3,5.5,5.4,3.4,7.5,1,2,2.353
14,SimA2,202,3.5,7.5,5.5,5.5,5.6,5.4,2,1,2.304
14,SimA2,204,3.6,7.3,5.5,5.4,5.7,5.2,1,1,2.928
14,SimA2,205,3.5,7.5,5.4,5.6,5.5,5.5,1,1,1.967
14,SimA2,207,3.5,7.5,5.4,5.6,5.5,5.5,2,1,4.624
14,SimA1,210,3.4,7.5,5.4,5.5,3.3,7.6,3,2,2.85
14,SimA1,212,3.7,7.5,5.6,5.6,3.6,7.6,1,2,4.431
14,SimA1,218,3.5,7.6,5.5,5.6,3.4,7.7,3,2,2.721
14,SimB2,219,7.6,3.4,5.5,5.5,5.4,5.6,2,1,2.142
14,SimB2,220,7.7,3.5,5.6,5.6,5.4,5.8,1,1,1.696
14,SimA2,221,3.6,7.4,5.5,5.5,5.7,5.3,1,1,3.232
14,SimB2,224,7.6,3.4,5.6,5.4,5.4,5.6,2,1,2.814
14,SimB1,228,7.3,3.5,5.3,5.5,7.5,3.3,1,2,5.71
14,SimA1,230,3.6,7.4,5.5,5.5,3.5,7.5,1,2,4.127
14,SimA2,234,3.7,7.3,5.6,5.4,5.8,5.2,1,1,4.736
14,SimB1,235,7.6,3.6,5.7,5.5,7.8,3.4,1,2,4.402
14,SimB1,236,7.6,3.5,5.5,5.6,7.8,3.3,2,2,5.04
14,SimA1,237,3.4,7.6,5.5,5.5,3.3,7.7,1,2,3.007
14,SimB2,238,7.4,3.5,5.5,5.4,5.3,5.6,1,1,1.791
15,SimB2,1,7.4,3.6,5.5,5.5,5.4,5.6,3,1,43.544
15,SimA2,2,3.3,7.5,5.4,5.4,5.6,5.2,3,1,12.547
15,SimB2,3,7.6,3.5,5.5,5.6,5.3,5.8,2,1,19.106
15,SimB2,5,7.6,3.5,5.5,5.6,5.3,5.8,3,1,13.583
15,SimA1,15,3.5,7.5,5.5,5.5,3.3,7.7,1,2,5.459
15,SimA2,17,3.6,7.3,5.5,5.4,5.7,5.2,2,2,8.112
15,SimB1,22,7.3,3.5,5.3,5.5,7.5,3.3,1,2,3.54
15,SimA2,23,3.5,7.5,5.4,5.6,5.5,5.5,3,3,5.042
15,SimA2,24,3.6,7.5,5.5,5.6,5.6,5.5,3,2,9.281
15,SimB1,26,7.3,3.6,5.4,5.5,7.5,3.4,3,2,2.738
15,SimB1,28,7.6,3.4,5.5,5.5,7.7,3.3,3,2,2.206
15,SimA2,32,3.6,7.4,5.5,5.5,5.7,5.3,1,2,4.85
15,SimA2,34,3.3,7.6,5.4,5.5,5.5,5.4,1,3,5.602
15,SimA1,35,3.7,7.5,5.7,5.5,3.6,7.6,2,3,4.129
15,SimA1,37,3.3,7.5,5.4,5.4,3.2,7.6,1,2,4.818
15,SimB2,38,7.6,3.4,5.5,5.5,5.4,5.6,1,2,1.727
15,SimA1,40,3.5,7.5,5.5,5.5,3.4,7.6,3,2,2.05
15,SimB2,41,7.4,3.6,5.4,5.6,5.2,5.8,2,2,4.354
15,SimA2,42,3.4,7.5,5.5,5.4,5.7,5.2,2,2,5.103
15,SimB2,43,7.4,3.5,5.5,5.4,5.4,5.5,3,1,3.519
15,SimA2,44,3.5,7.5,5.5,5.5,5.6,5.4,3,2,4.718
15,SimB2,45,7.4,3.5,5.4,5.5,5.2,5.7,1,2,4.946
15,SimA2,47,3.6,7.6,5.6,5.6,5.8,5.4,1,2,7.502
15,SimB1,48,7.6,3.5,5.5,5.6,7.7,3.4,1,2,2.291
15,SimA1,49,3.4,7.5,5.5,5.4,3.2,7.7,2,1,5.134
15,SimB2,50,7.5,3.6,5.5,5.6,5.4,5.7,2,2,3.662
15,SimA1,52,3.5,7.5,5.4,5.6,3.3,7.7,3,2,4.178
15,SimA1,57,3.7,7.5,5.6,5.6,3.5,7.7,1,2,1.921
15,SimB1,58,7.4,3.6,5.4,5.6,7.6,3.4,2,2,13.598
15,SimA1,60,3.4,7.5,5.4,5.5,3.3,7.6,3,2,5.117
15,SimA2,63,3.5,7.5,5.5,5.5,5.6,5.4,3,2,2.129
15,SimB1,65,7.6,3.4,5.5,5.5,7.7,3.3,3,2,2.385
15,SimB1,66,7.5,3.5,5.5,5.5,7.6,3.4,2,2,2.223
15,SimB1,67,7.4,3.5,5.5,5.4,7.5,3.4,2,1,4.192
15,SimA1,70,3.5,7.5,5.5,5.5,3.3,7.7,2,2,1.054
15,SimB1,71,7.7,3.5,5.6,5.6,7.9,3.3,3,2,6.63
15,SimA1,72,3.4,7.6,5.4,5.6,3.3,7.7,1,2,11.585
15,SimA1,74,3.6,7.3,5.5,5.4,3.4,7.5,2,2,3.825
15,SimA1,75,3.6,7.4,5.5,5.5,3.5,7.5,1,2,1.968
15,SimA2,76,3.4,7.6,5.5,5.5,5.6,5.4,2,2,2.0
15,SimA2,77,3.7,7.5,5.6,5.6,5.8,5.4,2,2,1.837
15,SimB1,79,7.6,3.5,5.5,5.6,7.8,3.3,3,2,18.161
15,SimB1,80,7.3,3.7,5.4,5.6,7.5,3.5,1,2,3.841
15,SimA1,83,3.6,7.3,5.5,5.4,3.4,7.5,2,2,2.129
15,SimA2,86,3.4,7.5,5.4,5.5,5.6,5.3,1,3,9.71
15,SimB1,87,7.6,3.4,5.5,5.5,7.8,3.2,2,2,5.759
15,SimB2,90,7.6,3.6,5.6,5.6,5.4,5.8,2,2,3.278
15,SimB2,91,7.5,3.4,5.5,5.4,5.3,5.6,2,3,4.592
15,SimB2,93,7.5,3.5,5.5,5.5,5.4,5.6,3,2,2.51
15,SimB1,95,7.6,3.3,5.5,5.4,7.7,3.2,2,2,3.168
15,SimA1,97,3.5,7.5,5.4,5.6,3.3,7.7,1,2,7.264
15,SimA2,100,3.7,7.5,5.7,5.5,5.8,5.4,2,2,5.151
15,SimA1,104,3.5,7.7,5.6,5.6,3.4,7.8,3,2,3.153
15,SimA1,105,3.6,7.5,5.5,5.6,3.4,7.7,2,2,2.688
15,SimA1,108,3.4,7.6,5.5,5.5,3.2,7.8,3,2,2.481
15,SimB2,111,7.6,3.4,5.5,5.5,5.4,5.6,2,2,1.471
15,SimB1,112,7.5,3.6,5.5,5.6,7.6,3.5,2,2,2.326
15,SimA2,117,3.7,7.3,5.6,5.4,5.8,5.2,3,2,8.016
15,SimB2,118,7.6,3.4,5.6,5.4,5.4,5.6,1,2,5.982
15,SimA1,119,3.6,7.6,5.6,5.6,3.5,7.7,1,2,3.358
15,SimB2,120,7.3,3.7,5.4,5.6,5.2,5.8,3,2,6.177
15,SimA1,124,3.6,7.3,5.5,5.4,3.4,7.5,2,2,4.702
15,SimA1,125,3.4,7.6,5.5,5.5,3.3,7.7,1,2,3.729
15,SimB2,126,7.6,3.4,5.5,5.5,5.3,5.7,1,2,1.906
15,SimA1,128,3.4,7.5,5.4,5.5,3.2,7.7,2,2,3.152
15,SimB1,133,7.4,3.6,5.5,5.5,7.6,3.4,3,2,1.95
15,SimA1,136,3.6,7.3,5.5,5.4,3.4,7.5,2,2,12.575
15,SimA2,137,3.6,7.3,5.5,5.4,5.7,5.2,1,2,4.256
15,SimA2,142,3.5,7.7,5.6,5.6,5.8,5.4,2,2,2.56
15,SimA2,143,3.6,7.3,5.5,5.4,5.6,5.3,2,2,6.303
15,SimB1,145,7.6,3.4,5.6,5.4,7.8,3.2,2,2,4.113
15,SimB1,146,7.6,3.6,5.6,5.6,7.8,3.4,3,2,5.232
15,SimB1,147,7.4,3.5,5.5,5.4,7.5,3.4,1,2,4.641
15,SimB2,148,7.5,3.4,5.5,5.4,5.3,5.6,1,2,5.153
15,SimA1,149,3.7,7.5,5.6,5.6,3.6,7.6,1,2,2.337
15,SimB2,152,7.5,3.3,5.4,5.4,5.3,5.5,2,2,2.255
15,SimA2,154,3.5,7.5,5.5,5.5,5.6,5.4,3,2,3.503
15,SimB1,155,7.4,3.5,5.4,5.5,7.5,3.4,3,2,2.318
15,SimA1,156,3.5,7.5,5.5,5.5,3.3,7.7,2,2,1.985
15,SimB1,157,7.6,3.6,5.7,5.5,7.8,3.4,3,2,2.897
15,SimB1,161,7.6,3.4,5.5,5.5,7.7,3.3,1,2,2.526
15,SimB1,165,7.5,3.4,5.5,5.4,7.7,3.2,1,2,2.797
15,SimB2,167,7.6,3.6,5.7,5.5,5.6,5.6,3,3,2.239
15,SimA2,169,3.5,7.6,5.5,5.6,5.6,5.5,3,3,7.699
15,SimB1,174,7.6,3.5,5.5,5.6,7.8,3.3,3,2,3.666
15,SimB1,175,7.6,3.4,5.5,5.5,7.8,3.2,3,2,3.185
15,SimB1,176,7.7,3.5,5.6,5.6,7.8,3.4,1,2,4.546
15,SimB2,177,7.6,3.6,5.6,5.6,5.4,5.8,2,2,4.638
15,SimB2,178,7.3,3.6,5.4,5.5,5.3,5.6,3,2,6.236
15,SimB2,180,7.7,3.5,5.6,5.6,5.4,5.8,1,2,3.088
15,SimA1,182,3.3,7.6,5.4,5.5,3.1,7.8,3,2,5.015
15,SimB2,183,7.6,3.3,5.5,5.4,5.3,5.6,3,2,3.025
15,SimB2,185,7.3,3.6,5.4,5.5,5.2,5.7,1,2,3.422
15,SimA1,186,3.5,7.6,5.5,5.6,3.4,7.7,3,2,3.504
15,SimB1,187,7.3,3.6,5.4,5.5,7.5,3.4,2,2,2.383
15,SimA2,188,3.5,7.5,5.4,5.6,5.5,5.5,1,3,1.502
15,SimA1,189,3.3,7.5,5.3,5.5,3.1,7.7,3,2,2.575
15,SimA2,190,3.6,7.3,5.5,5.4,5.6,5.3,2,2,2.336
15,SimA2,191,3.4,7.6,5.5,5.5,5.7,5.3,2,2,1.342
15,SimB2,193,7.6,3.4,5.5,5.5,5.4,5.6,3,2,3.038
15,SimB1,194,7.6,3.6,5.6,5.6,7.7,3.5,3,2,4.736
15,SimA2,195,3.7,7.5,5.6,5.6,5.7,5.5,1,2,2.495
15,SimB2,199,7.7,3.5,5.6,5.6,5.4,5.8,1,2,5.231
15,SimB2,201,7.6,3.4,5.5,5.5,5.4,5.6,1,2,1.651
15,SimB1,202,7.5,3.4,5.5,5.4,7.6,3.3,2,2,1.966
15,SimA2,203,3.5,7.6,5.5,5.6,5.6,5.5,1,3,4.304
15,SimA2,204,3.4,7.7,5.5,5.6,5.6,5.5,1,3,2.319
15,SimB2,208,7.3,3.5,5.3,5.5,5.1,5.7,3,1,6.832
15,SimA2,212,3.5,7.5,5.5,5.5,5.6,5.4,1,2,1.856
15,SimA1,214,3.4,7.7,5.5,5.6,3.2,7.9,1,2,2.096
15,SimA2,220,3.4,7.6,5.4,5.6,5.5,5.5,2,3,2.687
15,SimB2,221,7.4,3.5,5.5,5.4,5.3,5.6,3,2,2.48
15,SimA2,225,3.3,7.5,5.3,5.5,5.5,5.3,2,3,2.991
15,SimA2,228,3.4,7.5,5.4,5.5,5.6,5.3,1,3,5.617
15,SimB1,229,7.5,3.3,5.4,5.4,7.6,3.2,3,2,1.727
15,SimB1,230,7.4,3.6,5.4,5.6,7.5,3.5,3,2,1.891
15,SimA1,233,3.7,7.3,5.6,5.4,3.5,7.5,1,2,2.804
15,SimA1,234,3.5,7.6,5.5,5.6,3.4,7.7,3,2,4.863
15,SimB2,235,7.4,3.6,5.4,5.6,5.2,5.8,2,2,2.606
15,SimB2,236,7.6,3.5,5.5,5.6,5.4,5.7,2,2,2.288
16,SimB1,1,7.4,3.6,5.4,5.6,7.5,3.5,2,2,94.342
16,SimA2,4,3.5,7.6,5.5,5.6,5.6,5.5,2,3,6.948
16,SimB2,7,7.6,3.6,5.6,5.6,5.4,5.8,1,2,4.676
16,SimB2,8,7.5,3.4,5.5,5.4,5.3,5.6,1,2,4.898
16,SimB1,11,7.6,3.4,5.5,5.5,7.7,3.3,2,2,4.914
16,SimA1,12,3.4,7.7,5.5,5.6,3.2,7.9,3,2,2.915
16,SimB2,14,7.6,3.6,5.6,5.6,5.4,5.8,1,2,4.098
16,SimA1,15,3.4,7.6,5.5,5.5,3.2,7.8,2,2,1.907
16,SimB2,16,7.4,3.5,5.4,5.5,5.2,5.7,2,2,3.876
16,SimA2,17,3.5,7.5,5.5,5.5,5.6,5.4,3,2,2.514
16,SimA1,18,3.6,7.6,5.6,5.6,3.5,7.7,3,2,1.955
16,SimA2,21,3.6,7.3,5.5,5.4,5.6,5.3,3,3,5.412
16,SimB1,24,7.5,3.3,5.4,5.4,7.6,3.2,2,2,7.364
16,SimA1,29,3.5,7.5,5.5,5.5,3.3,7.7,3,2,2.543
16,SimA2,30,3.7,7.5,5.6,5.6,5.7,5.5,1,2,2.848
16,SimB1,32,7.4,3.5,5.4,5.5,7.5,3.4,1,1,11.697
16,SimA2,33,3.3,7.6,5.4,5.5,5.5,5.4,3,3,8.142
16,SimA2,34,3.4,7.6,5.5,5.5,5.6,5.4,2,2,3.411
16,SimB2,35,7.5,3.5,5.5,5.5,5.4,5.6,3,2,2.91
16,SimB2,36,7.5,3.6,5.5,5.6,5.4,5.7,2,2,3.024
16,SimB1,37,7.6,3.4,5.5,5.5,7.7,3.3,3,2,5.423
16,SimA1,38,3.6,7.3,5.5,5.4,3.4,7.5,1,2,3.65
16,SimA1,43,3.5,7.5,5.4,5.6,3.3,7.7,1,2,3.362
16,SimB2,44,7.6,3.6,5.7,5.5,5.6,5.6,1,3,2.223
16,SimA2,49,3.7,7.5,5.6,5.6,5.8,5.4,1,2,2.336
16,SimB2,51,7.4,3.5,5.5,5.4,5.3,5.6,3,2,15.025
16,SimA2,53,3.5,7.5,5.4,5.6,5.5,5.5,1,3,3.199
16,SimB2,56,7.4,3.5,5.5,5.4,5.4,5.5,1,2,7.951
16,SimA2,58,3.7,7.5,5.7,5.5,5.8,5.4,3,2,7.725
16,SimA1,61,3.6,7.5,5.5,5.6,3.4,7.7,3,2,6.591
16,SimB1,62,7.6,3.5,5.5,5.6,7.7,3.4,1,1,25.43
16,SimB1,63,7.6,3.6,5.6,5.6,7.8,3.4,3,3,6.179
16,SimB2,67,7.7,3.5,5.6,5.6,5.4,5.8,2,2,2.639
16,SimA1,70,3.3,7.5,5.3,5.5,3.1,7.7,1,2,2.989
16,SimA1,71,3.5,7.6,5.5,5.6,3.4,7.7,3,2,3.312
16,SimB2,75,7.3,3.7,5.4,5.6,5.2,5.8,1,2,3.951
16,SimA1,76,3.5,7.5,5.5,5.5,3.3,7.7,3,2,1.902
16,SimA2,77,3.6,7.3,5.5,5.4,5.7,5.2,1,2,2.323
16,SimA2,80,3.3,7.5,5.3,5.5,5.5,5.3,2,2,3.375
16,SimB2,81,7.3,3.6,5.4,5.5,5.3,5.6,2,2,4.767
16,SimB2,84,7.3,3.6,5.4,5.5,5.2,5.7,1,2,5.666
16,SimB1,85,7.6,3.4,5.5,5.5,7.8,3.2,2,2,3.185
16,SimA1,86,3.7,7.5,5.7,5.5,3.6,7.6,2,2,8.112
16,SimB2,91,7.6,3.4,5.5,5.5,5.3,5.7,2,2,1.536
16,SimA2,93,3.6,7.6,5.6,5.6,5.8,5.4,2,2,10.191
16,SimB2,95,7.6,3.4,5.5,5.5,5.4,5.6,2,2,6.447
16,SimA2,99,3.4,7.6,5.4,5.6,5.5,5.5,2,3,3.952
16,SimB1,102,7.5,3.4,5.5,5.4,7.7,3.2,3,2,3.983
16,SimA1,104,3.7,7.3,5.6,5.4,3.5,7.5,3,2,5.469
16,SimB2,105,7.5,3.4,5.5,5.4,5.3,5.6,1,2,3.855
16,SimB2,106,7.6,3.4,5.5,5.5,5.4,5.6,1,3,1.28
16,SimB2,109,7.6,3.5,5.5,5.6,5.3,5.8,1,2,22.817
16,SimB1,111,7.5,3.5,5.5,5.5,7.6,3.4,3,2,6.641
16,SimB1,113,7.3,3.5,5.3,5.5,7.5,3.3,1,2,6.015
16,SimA1,115,3.5,7.7,5.6,5.6,3.4,7.8,2,2,5.455
16,SimA1,116,3.6,7.3,5.5,5.4,3.4,7.5,1,2,6.883
16,SimB1,117,7.6,3.5,5.5,5.6,7.8,3.3,1,2,4.557
16,SimB2,119,7.5,3.3,5.4,5.4,5.3,5.5,3,2,5.727
16,SimA1,120,3.7,7.5,5.6,5.6,3.5,7.7,1,2,5.823
16,SimB1,121,7.4,3.6,5.4,5.6,7.6,3.4,1,2,4.255
16,SimB1,123,7.4,3.5,5.5,5.4,7.5,3.4,2,2,7.792
16,SimB2,124,7.3,3.5,5.3,5.5,5.1,5.7,2,2,9.043
16,SimB2,127,7.6,3.3,5.5,5.4,5.3,5.6,2,3,8.718
16,SimA2,131,3.5,7.5,5.5,5.5,5.6,5.4,1,2,3.072
16,SimB1,132,7.6,3.4,5.6,5.4,7.8,3.2,3,2,6.927
16,SimA1,133,3.3,7.5,5.4,5.4,3.2,7.6,3,2,3.806
16,SimA1,134,3.4,7.5,5.4,5.5,3.3,7.6,2,2,4.194
16,SimA1,136,3.5,7.5,5.4,5.6,3.3,7.7,3,2,17.537
16,SimA1,138,3.4,7.6,5.4,5.6,3.3,7.7,3,2,9.808
16,SimA2,139,3.5,7.5,5.5,5.5,5.6,5.4,3,2,4.642
16,SimA2,142,3.5,7.5,5.5,5.5,5.6,5.4,2,2,5.007
16,SimB2,144,7.6,3.5,5.5,5.6,5.4,5.7,1,2,4.418
16,SimA2,146,3.6,7.4,5.5,5.5,5.7,5.3,3,2,2.736
16,SimB2,149,7.7,3.5,5.6,5.6,5.4,5.8,3,2,4.064
16,SimA2,152,3.5,7.7,5.6,5.6,5.8,5.4,1,2,3.713
16,SimB1,153,7.5,3.4,5.5,5.4,7.6,3.3,1,2,3.376
16,SimB2,154,7.4,3.6,5.4,5.6,5.2,5.8,1,2,6.719
16,SimB2,156,7.6,3.4,5.5,5.5,5.4,5.6,2,2,2.544
16,SimA2,157,3.3,7.5,5.4,5.4,5.6,5.2,1,2,4.946
16,SimA2,158,3.4,7.5,5.4,5.5,5.6,5.3,1,2,3.613
16,SimA2,159,3.6,7.3,5.5,5.4,5.7,5.2,3,2,8.099
16,SimA2,160,3.7,7.3,5.6,5.4,5.8,5.2,2,2,6.639
16,SimA1,161,3.4,7.5,5.5,5.4,3.2,7.7,3,2,2.719
16,SimA2,162,3.4,7.5,5.5,5.4,5.7,5.2,1,2,3.84
16,SimB1,164,7.5,3.6,5.5,5.6,7.6,3.5,2,2,9.841
16,SimA2,166,3.6,7.3,5.5,5.4,5.6,5.3,1,2,5.406
16,SimB1,167,7.4,3.6,5.5,5.5,7.6,3.4,1,2,2.159
16,SimB1,172,7.6,3.4,5.5,5.5,7.7,3.3,1,2,4.349
16,SimB1,173,7.6,3.3,5.5,5.4,7.7,3.2,1,2,13.424
16,SimB2,178,7.4,3.6,5.5,5.5,5.4,5.6,3,2,4.525
16,SimA2,181,3.6,7.5,5.5,5.6,5.6,5.5,1,3,5.409
16,SimA1,189,3.5,7.5,5.5,5.5,3.3,7.7,1,2,5.808
16,SimB1,190,7.7,3.5,5.6,5.6,7.8,3.4,1,2,2.782
16,SimB1,191,7.6,3.4,5.5,5.5,7.8,3.2,3,2,4.273
16,SimA1,192,3.6,7.3,5.5,5.4,3.4,7.5,1,2,2.863
16,SimA1,196,3.4,7.6,5.5,5.5,3.3,7.7,2,2,2.336
16,SimB1,197,7.3,3.6,5.4,5.5,7.5,3.4,1,2,7.904
16,SimB2,200,7.6,3.4,5.5,5.5,5.4,5.6,3,2,4.432
16,SimA1,201,3.4,7.5,5.4,5.5,3.2,7.7,1,2,2.847
16,SimA2,202,3.4,7.5,5.4,5.5,5.6,5.3,1,2,5.122
16,SimA2,207,3.4,7.6,5.5,5.5,5.7,5.3,3,2,2.911
16,SimA1,208,3.6,7.3,5.5,5.4,3.4,7.5,1,2,5.793
16,SimA1,210,3.5,7.5,5.5,5.5,3.4,7.6,2,2,2.35
16,SimB2,211,7.6,3.5,5.5,5.6,5.3,5.8,3,2,2.863
16,SimB2,214,7.4,3.6,5.4,5.6,5.2,5.8,1,3,6.786
16,SimB2,215,7.6,3.4,5.6,5.4,5.4,5.6,1,3,5.104
16,SimB1,216,7.7,3.5,5.6,5.6,7.9,3.3,2,2,2.928
16,SimA1,217,3.7,7.5,5.6,5.6,3.6,7.6,2,2,2.673
16,SimA1,218,3.3,7.6,5.4,5.5,3.1,7.8,1,2,2.286
16,SimB1,221,7.6,3.6,5.6,5.6,7.7,3.5,3,2,2.943
16,SimB1,222,7.3,3.7,5.4,5.6,7.5,3.5,2,2,5.758
16,SimB1,224,7.4,3.5,5.5,5.4,7.5,3.4,2,1,5.247
16,SimA2,225,3.4,7.7,5.5,5.6,5.6,5.5,2,3,5.648
16,SimA1,229,3.5,7.6,5.5,5.6,3.4,7.7,1,2,3.265
16,SimA1,230,3.6,7.4,5.5,5.5,3.5,7.5,2,2,6.321
16,SimB1,231,7.6,3.6,5.7,5.5,7.8,3.4,3,2,7.169
16,SimA2,232,3.5,7.6,5.5,5.6,5.6,5.5,1,3,7.215
16,SimB1,236,7.6,3.5,5.5,5.6,7.8,3.3,2,2,13.853
16,SimA2,238,3.5,7.5,5.4,5.6,5.5,5.5,2,3,2.131
16,SimB1,240,7.3,3.6,5.4,5.5,7.5,3.4,1,2,4.735
17,SimB2,5,7.6,3.4,5.5,5.5,5.4,5.6,3,3,7.795
17,SimA2,8,3.4,7.6,5.5,5.5,5.7,5.3,3,2,6.003
17,SimB1,10,7.4,3.5,5.5,5.4,7.5,3.4,2,2,5.491
17,SimA2,11,3.5,7.6,5.5,5.6,5.6,5.5,1,3,7.282
17,SimB1,12,7.6,3.4,5.5,5.5,7.7,3.3,2,2,2.947
17,SimA2,13,3.6,7.3,5.5,5.4,5.6,5.3,2,2,4.227
17,SimB2,16,7.6,3.6,5.6,5.6,5.4,5.8,1,2,5.634
17,SimA2,18,3.5,7.5,5.5,5.5,5.6,5.4,3,2,2.164
17,SimA1,19,3.7,7.5,5.6,5.6,3.5,7.7,1,2,3.153
17,SimB2,20,7.6,3.4,5.5,5.5,5.4,5.6,1,2,4.853
17,SimA2,21,3.5,7.5,5.5,5.5,5.6,5.4,1,2,1.778
17,SimB2,22,7.6,3.5,5.5,5.6,5.3,5.8,3,2,3.075
17,SimB2,25,7.6,3.4,5.5,5.5,5.4,5.6,1,2,3.454
17,SimA1,26,3.5,7.5,5.4,5.6,3.3,7.7,2,2,3.12
17,SimB1,27,7.6,3.5,5.5,5.6,7.7,3.4,1,2,2.273
17,SimA1,28,3.5,7.5,5.5,5.5,3.3,7.7,3,2,2.512
17,SimA1,29,3.5,7.6,5.5,5.6,3.4,7.7,1,2,2.8
17,SimA1,30,3.3,7.5,5.4,5.4,3.2,7.6,3,2,3.008
17,SimB1,31,7.4,3.6,5.5,5.5,7.6,3.4,3,2,3.808
17,SimB2,32,7.5,3.4,5.5,5.4,5.3,5.6,3,2,2.031
17,SimB1,34,7.5,3.4,5.5,5.4,7.7,3.2,3,2,2.29
17,SimA2,35,3.4,7.5,5.5,5.4,5.7,5.2,1,2,2.335
17,SimA1,36,3.5,7.6,5.5,5.6,3.4,7.7,1,2,2.432
17,SimA2,37,3.5,7.7,5.6,5.6,5.8,5.4,1,2,1.552
17,SimB2,41,7.5,3.6,5.5,5.6,5.4,5.7,3,2,2.174
17,SimA2,43,3.7,7.5,5.6,5.6,5.7,5.5,1,2,2.895
17,SimA1,45,3.5,7.7,5.6,5.6,3.4,7.8,2,2,2.543
17,SimA1,47,3.4,7.6,5.5,5.5,3.2,7.8,1,2,1.793
17,SimB2,49,7.4,3.6,5.4,5.6,5.2,5.8,3,2,3.214
17,SimA2,51,3.4,7.5,5.4,5.5,5.6,5.3,2,2,1.666
17,SimB1,53,7.5,3.4,5.5,5.4,7.6,3.3,3,2,2.59
17,SimA1,54,3.6,7.3,5.5,5.4,3.4,7.5,3,2,3.168
17,SimA1,55,3.5,7.5,5.4,5.6,3.3,7.7,3,2,1.565
17,SimA1,56,3.4,7.5,5.4,5.5,3.2,7.7,3,2,1.681
17,SimA1,57,3.5,7.5,5.5,5.5,3.3,7.7,2,2,2.174
17,SimB2,58,7.6,3.3,5.5,5.4,5.3,5.6,3,2,5.33
17,SimA1,60,3.6,7.3,5.5,5.4,3.4,7.5,1,2,2.686
17,SimB1,61,7.6,3.6,5.6,5.6,7.8,3.4,2,1,1.679
17,SimB2,62,7.7,3.5,5.6,5.6,5.4,5.8,3,2,2.405
17,SimB2,63,7.3,3.5,5.3,5.5,5.1,5.7,1,2,2.159
17,SimB1,66,7.3,3.6,5.4,5.5,7.5,3.4,2,2,1.505
17,SimA1,67,3.4,7.7,5.5,5.6,3.2,7.9,2,2,1.682
17,SimA1,69,3.3,7.5,5.3,5.5,3.1,7.7,3,2,2.317
17,SimA1,70,3.7,7.3,5.6,5.4,3.5,7.5,3,2,2.814
17,SimB2,71,7.4,3.6,5.5,5.5,5.4,5.6,2,2,2.496
17,SimA2,75,3.6,7.5,5.5,5.6,5.6,5.5,1,2,2.897
17,SimB2,78,7.4,3.5,5.5,5.4,5.3,5.6,3,2,2.59
17,SimB2,79,7.6,3.5,5.5,5.6,5.3,5.8,2,2,1.904
17,SimA2,80,3.5,7.5,5.5,5.5,5.6,5.4,3,2,1.535
17,SimA1,83,3.6,7.4,5.5,5.5,3.5,7.5,2,2,1.778
17,SimB1,84,7.5,3.3,5.4,5.4,7.6,3.2,3,2,1.213
17,SimB1,86,7.4,3.6,5.4,5.6,7.5,3.5,2,2,3.101
17,SimA2,87,3.3,7.6,5.4,5.5,5.5,5.4,2,2,4.976
17,SimA2,89,3.3,7.5,5.4,5.4,5.6,5.2,1,2,6.143
17,SimB2,91,7.4,3.6,5.4,5.6,5.2,5.8,2,2,5.297
17,SimB2,92,7.4,3.5,5.5,5.4,5.4,5.5,3,2,3.998
17,SimB1,93,7.3,3.6,5.4,5.5,7.5,3.4,1,2,3.569
17,SimB2,95,7.5,3.5,5.5,5.5,5.4,5.6,1,2,3.584
17,SimB2,96,7.6,3.4,5.5,5.5,5.4,5.6,2,2,5.246
17,SimB1,98,7.6,3.6,5.6,5.6,7.7,3.5,3,1,4.16
17,SimB2,101,7.3,3.6,5.4,5.5,5.3,5.6,1,2,3.921
17,SimB1,105,7.6,3.6,5.7,5.5,7.8,3.4,1,2,4.784
17,SimA2,106,3.4,7.7,5.5,5.6,5.6,5.5,3,1,6.114
17,SimA2,107,3.6,7.4,5.5,5.5,5.7,5.3,3,1,2.974
17,SimA1,109,3.6,7.6,5.6,5.6,3.5,7.7,3,2,3.022
17,SimB1,110,7.5,3.6,5.5,5.6,7.6,3.5,2,2,2.432
17,SimB1,113,7.3,3.7,5.4,5.6,7.5,3.5,3,2,1.774
17,SimA2,117,3.7,7.3,5.6,5.4,5.8,5.2,1,2,3.503
17,SimB2,118,7.5,3.4,5.5,5.4,5.3,5.6,3,3,4.624
17,SimA2,119,3.3,7.5,5.3,5.5,5.5,5.3,2,3,4.657
17,SimA2,121,3.7,7.5,5.7,5.5,5.8,5.4,2,2,3.873
17,SimB1,123,7.6,3.3,5.5,5.4,7.7,3.2,2,2,2.575
17,SimA1,127,3.6,7.5,5.5,5.6,3.4,7.7,2,2,5.662
17,SimB2,128,7.6,3.4,5.6,5.4,5.4,5.6,2,2,5.106
17,SimA1,130,3.3,7.6,5.4,5.5,3.1,7.8,2,2,6.082
17,SimA2,139,3.5,7.5,5.4,5.6,5.5,5.5,3,3,3.967
17,SimA1,140,3.6,7.3,5.5,5.4,3.4,7.5,2,2,4.079
17,SimA2,144,3.4,7.6,5.5,5.5,5.6,5.4,3,2,3.377
17,SimB2,145,7.7,3.5,5.6,5.6,5.4,5.8,2,2,4.927
17,SimA2,146,3.4,7.5,5.4,5.5,5.6,5.3,2,2,5.423
17,SimA2,148,3.6,7.3,5.5,5.4,5.6,5.3,1,2,3.582
17,SimA1,149,3.5,7.5,5.5,5.5,3.4,7.6,2,2,3.326
17,SimA1,152,3.4,7.6,5.5,5.5,3.3,7.7,1,2,5.393
17,SimB1,154,7.6,3.4,5.5,5.5,7.8,3.2,1,2,3.213
17,SimB2,157,7.3,3.6,5.4,5.5,5.2,5.7,1,2,2.498
17,SimA2,158,3.6,7.3,5.5,5.4,5.7,5.2,1,2,2.573
17,SimA1,160,3.6,7.3,5.5,5.4,3.4,7.5,3,2,6.286
17,SimB1,161,7.6,3.5,5.5,5.6,7.8,3.3,1,2,2.802
17,SimB2,164,7.3,3.7,5.4,5.6,5.2,5.8,1,2,3.218
17,SimA1,165,3.4,7.6,5.4,5.6,3.3,7.7,1,2,2.414
17,SimB2,166,7.6,3.6,5.6,5.6,5.4,5.8,3,2,2.098
17,SimA2,167,3.5,7.5,5.5,5.5,5.6,5.4,1,2,1.999
17,SimB1,171,7.4,3.5,5.5,5.4,7.5,3.4,2,2,1.934
17,SimA2,172,3.6,7.6,5.6,5.6,5.8,5.4,1,2,2.336
17,SimA2,173,3.5,7.6,5.5,5.6,5.6,5.5,1,3,16.112
17,SimB2,185,7.5,3.3,5.4,5.4,5.3,5.5,2,2,2.562
17,SimB1,186,7.7,3.5,5.6,5.6,7.9,3.3,2,2,1.953
17,SimB1,187,7.4,3.6,5.4,5.6,7.6,3.4,2,2,1.869
17,SimA1,189,3.4,7.5,5.4,5.5,3.3,7.6,3,2,2.064
17,SimA2,192,3.5,7.5,5.4,5.6,5.5,5.5,1,2,2.866
17,SimB2,193,7.6,3.4,5.5,5.5,5.3,5.7,1,2,1.807
17,SimB1,195,7.4,3.5,5.4,5.5,7.5,3.4,2,2,4.08
17,SimA2,196,3.4,7.6,5.4,5.6,5.5,5.5,2,3,2.913
17,SimB1,198,7.6,3.4,5.6,5.4,7.8,3.2,1,2,4.334
17,SimA1,199,3.7,7.5,5.6,5.6,3.6,7.6,1,2,3.057
17,SimB1,202,7.7,3.5,5.6,5.6,7.8,3.4,3,2,2.578
17,SimB1,204,7.6,3.4,5.5,5.5,7.7,3.3,2,2,2.159
17,SimB1,214,7.3,3.5,5.3,5.5,7.5,3.3,2,2,1.825
17,SimB1,215,7.6,3.4,5.5,5.5,7.7,3.3,3,2,2.752
17,SimA1,218,3.7,7.5,5.7,5.5,3.6,7.6,3,2,2.896
17,SimB1,220,7.6,3.5,5.5,5.6,7.8,3.3,2,2,2.463
17,SimA1,221,3.5,7.5,5.5,5.5,3.3,7.7,2,2,3.313
17,SimB2,223,7.6,3.6,5.7,5.5,5.6,5.6,1,3,3.134
17,SimB2,228,7.6,3.5,5.5,5.6,5.4,5.7,3,2,2.815
17,SimA2,232,3.7,7.5,5.6,5.6,5.8,5.4,1,2,3.007
17,SimB1,234,7.5,3.5,5.5,5.5,7.6,3.4,1,2,1.647
17,SimB1,235,7.6,3.4,5.5,5.5,7.8,3.2,1,2,2.05
17,SimA1,237,3.4,7.5,5.5,5.4,3.2,7.7,1,2,2.163
17,SimB2,238,7.4,3.5,5.4,5.5,5.2,5.7,3,2,3.965
17,SimA2,240,3.6,7.3,5.5,5.4,5.7,5.2,1,2,2.162
18,SimB2,1,7.5,3.5,5.5,5.5,5.4,5.6,2,3,50.055
18,SimB1,3,7.7,3.5,5.6,5.6,7.9,3.3,1,1,63.217
18,SimB1,4,7.6,3.5,5.5,5.6,7.8,3.3,2,1,17.747
18,SimB1,5,7.6,3.4,5.5,5.5,7.7,3.3,1,1,8.995
18,SimB1,7,7.4,3.5,5.5,5.4,7.5,3.4,2,1,15.635
18,SimA1,8,3.5,7.5,5.5,5.5,3.3,7.7,1,1,11.042
18,SimA1,11,3.6,7.4,5.5,5.5,3.5,7.5,3,1,7.492
18,SimB2,15,7.5,3.3,5.4,5.4,5.3,5.5,1,2,20.786
18,SimB1,19,7.4,3.6,5.5,5.5,7.6,3.4,2,1,32.226
18,SimA1,21,3.7,7.5,5.6,5.6,3.5,7.7,3,1,8.019
18,SimB1,22,7.5,3.4,5.5,5.4,7.6,3.3,2,1,16.371
18,SimA1,24,3.5,7.5,5.5,5.5,3.4,7.6,1,1,7.554
18,SimB2,27,7.5,3.4,5.5,5.4,5.3,5.6,3,1,35.601
18,SimA2,28,3.7,7.5,5.7,5.5,5.8,5.4,1,1,7.215
18,SimB1,29,7.5,3.4,5.5,5.4,7.7,3.2,2,1,8.401
18,SimA2,33,3.4,7.5,5.5,5.4,5.7,5.2,1,1,18.399
18,SimA2,34,3.6,7.5,5.5,5.6,5.6,5.5,2,1,2.798
18,SimB1,40,7.4,3.6,5.4,5.6,7.6,3.4,3,2,5.328
18,SimA2,42,3.7,7.5,5.6,5.6,5.8,5.4,1,1,6.368
18,SimB2,44,7.7,3.5,5.6,5.6,5.4,5.8,1,1,4.514
18,SimA1,46,3.4,7.7,5.5,5.6,3.2,7.9,2,1,11.233
18,SimA1,47,3.5,7.6,5.5,5.6,3.4,7.7,3,2,8.144
18,SimB2,51,7.4,3.5,5.5,5.4,5.3,5.6,1,1,2.625
18,SimB1,52,7.3,3.7,5.4,5.6,7.5,3.5,1,2,3.503
18,SimB1,53,7.5,3.6,5.5,5.6,7.6,3.5,3,2,2.511
18,SimA1,57,3.4,7.6,5.5,5.5,3.3,7.7,1,2,2.561
18,SimB1,59,7.6,3.4,5.5,5.5,7.8,3.2,2,2,11.424
18,SimB1,60,7.6,3.6,5.7,5.5,7.8,3.4,2,2,8.56
18,SimA2,61,3.6,7.3,5.5,5.4,5.6,5.3,2,1,5.325
18,SimB1,62,7.6,3.4,5.5,5.5,7.7,3.3,1,2,15.846
18,SimA1,63,3.6,7.3,5.5,5.4,3.4,7.5,2,2,4.608
18,SimA1,68,3.3,7.5,5.3,5.5,3.1,7.7,1,2,6.783
18,SimA1,71,3.4,7.6,5.4,5.6,3.3,7.7,1,2,7.39
18,SimA2,72,3.4,7.6,5.4,5.6,5.5,5.5,3,1,4.048
18,SimB2,75,7.6,3.4,5.5,5.5,5.4,5.6,3,1,20.96
18,SimA1,76,3.4,7.5,5.4,5.5,3.2,7.7,3,2,5.935
18,SimB2,77,7.4,3.5,5.4,5.5,5.2,5.7,3,1,2.927
18,SimB1,78,7.6,3.5,5.5,5.6,7.7,3.4,1,2,2.017
18,SimA2,79,3.3,7.5,5.4,5.4,5.6,5.2,3,2,14.654
18,SimB2,84,7.5,3.4,5.5,5.4,5.3,5.6,3,1,9.214
18,SimA2,88,3.7,7.3,5.6,5.4,5.8,5.2,3,1,5.936
18,SimB1,90,7.4,3.6,5.4,5.6,7.5,3.5,3,2,8.595
18,SimA2,91,3.5,7.5,5.5,5.5,5.6,5.4,3,1,19.869
18,SimB1,92,7.3,3.6,5.4,5.5,7.5,3.4,1,2,10.159
18,SimB2,93,7.6,3.5,5.5,5.6,5.4,5.7,2,1,28.639
18,SimB2,94,7.6,3.6,5.6,5.6,5.4,5.8,1,2,10.784
18,SimA1,96,3.7,7.3,5.6,5.4,3.5,7.5,1,2,16.189
18,SimB2,99,7.3,3.6,5.4,5.5,5.3,5.6,3,3,22.637
18,SimA1,105,3.4,7.5,5.5,5.4,3.2,7.7,3,2,2.784
18,SimA1,106,3.6,7.3,5.5,5.4,3.4,7.5,2,2,3.92
18,SimB1,108,7.5,3.5,5.5,5.5,7.6,3.4,2,2,11.759
18,SimB2,111,7.3,3.7,5.4,5.6,5.2,5.8,2,2,10.798
18,SimA2,114,3.6,7.4,5.5,5.5,5.7,5.3,1,1,9.792
18,SimA2,115,3.5,7.6,5.5,5.6,5.6,5.5,2,1,7.007
18,SimA2,118,3.6,7.3,5.5,5.4,5.7,5.2,2,1,5.631
18,SimA2,119,3.6,7.3,5.5,5.4,5.6,5.3,2,1,3.086
18,SimB1,120,7.6,3.5,5.5,5.6,7.8,3.3,3,2,5.181
18,SimB1,121,7.3,3.5,5.3,5.5,7.5,3.3,1,2,4.609
18,SimB2,122,7.6,3.5,5.5,5.6,5.3,5.8,3,1,2.804
18,SimB2,126,7.3,3.6,5.4,5.5,5.2,5.7,2,1,2.385
18,SimA1,127,3.4,7.5,5.4,5.5,3.3,7.6,3,2,9.679
18,SimB2,128,7.6,3.5,5.5,5.6,5.3,5.8,2,1,5.361
18,SimB2,129,7.6,3.4,5.6,5.4,5.4,5.6,1,1,1.709
18,SimA2,132,3.5,7.5,5.5,5.5,5.6,5.4,1,1,2.447
18,SimB1,134,7.6,3.4,5.5,5.5,7.8,3.2,3,2,8.912
18,SimA2,139,3.4,7.6,5.5,5.5,5.6,5.4,2,1,2.158
18,SimA2,141,3.5,7.5,5.4,5.6,5.5,5.5,2,1,10.386
18,SimB2,146,7.6,3.4,5.5,5.5,5.4,5.6,2,1,9.055
18,SimB1,147,7.5,3.3,5.4,5.4,7.6,3.2,3,2,5.518
18,SimB2,148,7.4,3.6,5.5,5.5,5.4,5.6,1,3,1.986
18,SimB2,150,7.5,3.6,5.5,5.6,5.4,5.7,1,1,2.384
18,SimB1,155,7.3,3.6,5.4,5.5,7.5,3.4,1,2,4.332
18,SimA1,156,3.5,7.5,5.4,5.6,3.3,7.7,1,3,2.722
18,SimA1,157,3.5,7.5,5.5,5.5,3.3,7.7,1,2,2.754
18,SimA1,158,3.6,7.3,5.5,5.4,3.4,7.5,3,2,2.241
18,SimA1,159,3.5,7.5,5.4,5.6,3.3,7.7,2,2,2.271
18,SimB2,161,7.7,3.5,5.6,5.6,5.4,5.8,3,1,5.057
18,SimB2,162,7.4,3.6,5.4,5.6,5.2,5.8,1,1,1.873
18,SimA1,166,3.4,7.6,5.5,5.5,3.2,7.8,1,2,2.945
18,SimB1,167,7.7,3.5,5.6,5.6,7.8,3.4,2,2,2.38
18,SimA2,169,3.5,7.5,5.5,5.5,5.6,5.4,3,1,6.29
18,SimB2,170,7.6,3.4,5.5,5.5,5.4,5.6,3,1,3.054
18,SimA2,171,3.5,7.5,5.5,5.5,5.6,5.4,2,1,1.759
18,SimB2,172,7.6,3.6,5.7,5.5,5.6,5.6,1,1,2.495
18,SimA1,173,3.7,7.5,5.7,5.5,3.6,7.6,3,2,2.766
18,SimB2,177,7.6,3.4,5.5,5.5,5.4,5.6,3,1,6.11
18,SimA2,178,3.4,7.7,5.5,5.6,5.6,5.5,1,1,2.112
18,SimB1,179,7.6,3.4,5.6,5.4,7.8,3.2,3,2,3.615
18,SimB2,180,7.4,3.6,5.4,5.6,5.2,5.8,3,1,2.75
18,SimA2,181,3.7,7.5,5.6,5.6,5.7,5.5,2,1,2.336
18,SimA1,183,3.6,7.5,5.5,5.6,3.4,7.7,1,2,6.495
18,SimA2,184,3.5,7.6,5.5,5.6,5.6,5.5,2,1,2.286
18,SimA1,186,3.5,7.5,5.5,5.5,3.3,7.7,2,2,1.999
18,SimB1,188,7.6,3.6,5.6,5.6,7.8,3.4,3,2,7.345
18,SimA2,189,3.3,7.6,5.4,5.5,5.5,5.4,1,1,5.213
18,SimA2,193,3.3,7.5,5.3,5.5,5.5,5.3,2,1,3.025
18,SimB1,195,7.6,3.3,5.5,5.4,7.7,3.2,1,2,2.544
18,SimA2,197,3.5,7.5,5.4,5.6,5.5,5.5,1,1,2.142
18,SimB1,199,7.4,3.5,5.4,5.5,7.5,3.4,1,2,2.285
18,SimA2,202,3.4,7.5,5.4,5.5,5.6,5.3,2,1,2.064
18,SimA2,203,3.6,7.6,5.6,5.6,5.8,5.4,1,1,1.948
18,SimA2,204,3.5,7.7,5.6,5.6,5.8,5.4,3,1,1.601
18,SimB1,206,7.4,3.5,5.5,5.4,7.5,3.4,2,1,10.225
18,SimA1,208,3.7,7.5,5.6,5.6,3.6,7.6,3,2,2.769
18,SimB1,209,7.6,3.6,5.6,5.6,7.7,3.5,2,2,2.624
18,SimA2,210,3.4,7.6,5.5,5.5,5.7,5.3,3,1,3.534
18,SimA2,211,3.6,7.3,5.5,5.4,5.7,5.2,2,1,2.272
18,SimB2,212,7.4,3.5,5.5,5.4,5.4,5.5,3,1,1.839
18,SimA1,222,3.6,7.6,5.6,5.6,3.5,7.7,1,3,4.208
18,SimA1,224,3.3,7.5,5.4,5.4,3.2,7.6,1,2,1.794
18,SimB2,225,7.6,3.3,5.5,5.4,5.3,5.6,2,1,2.397
18,SimB1,228,7.6,3.4,5.5,5.5,7.7,3.3,1,2,1.584
18,SimA1,229,3.5,7.6,5.5,5.6,3.4,7.7,3,2,2.078
18,SimA2,231,3.4,7.5,5.4,5.5,5.6,5.3,3,1,1.971
18,SimA1,232,3.3,7.6,5.4,5.5,3.1,7.8,2,2,2.109
18,SimB2,236,7.6,3.4,5.5,5.5,5.3,5.7,1,2,8.142
18,SimA1,237,3.6,7.3,5.5,5.4,3.4,7.5,3,2,8.078
18,SimB2,238,7.3,3.5,5.3,5.5,5.1,5.7,1,2,3.154
18,SimA1,239,3.5,7.7,5.6,5.6,3.4,7.8,2,2,2.769
18,SimB2,240,7.6,3.6,5.6,5.6,5.4,5.8,3,1,6.591
19,SimA1,1,3.7,7.5,5.7,5.5,3.6,7.6,3,3,33.59
19,SimA1,2,3.4,7.5,5.4,5.5,3.3,7.6,3,3,13.187
19,SimB1,5,7.5,3.3,5.4,5.4,7.6,3.2,1,3,17.203
19,SimA2,7,3.3,7.5,5.4,5.4,5.6,5.2,2,2,15.108
19,SimB1,10,7.6,3.4,5.5,5.5,7.7,3.3,1,2,7.058
19,SimB1,11,7.7,3.5,5.6,5.6,7.8,3.4,2,2,2.692
19,SimA2,13,3.5,7.5,5.5,5.5,5.6,5.4,3,2,3.043
19,SimA1,14,3.5,7.5,5.5,5.5,3.4,7.6,3,2,2.499
19,SimA2,16,3.5,7.5,5.5,5.5,5.6,5.4,2,2,4.003
19,SimB1,19,7.6,3.6,5.6,5.6,7.7,3.5,2,2,3.058
19,SimA1,21,3.5,7.6,5.5,5.6,3.4,7.7,1,2,4.611
19,SimB2,22,7.3,3.7,5.4,5.6,5.2,5.8,1,2,5.985
19,SimA1,23,3.3,7.6,5.4,5.5,3.1,7.8,2,2,3.201
19,SimA1,24,3.5,7.5,5.5,5.5,3.3,7.7,1,2,2.132
19,SimB1,25,7.4,3.5,5.4,5.5,7.5,3.4,2,2,2.143
19,SimB1,26,7.6,3.5,5.5,5.6,7.8,3.3,3,2,3.537
19,SimA2,28,3.5,7.6,5.5,5.6,5.6,5.5,3,1,18.481
19,SimA1,29,3.5,7.5,5.5,5.5,3.3,7.7,2,2,3.087
19,SimA1,30,3.6,7.4,5.5,5.5,3.5,7.5,2,2,1.328
19,SimB1,31,7.6,3.4,5.5,5.5,7.7,3.3,3,2,5.047
19,SimB1,32,7.4,3.5,5.5,5.4,7.5,3.4,3,2,6.896
19,SimA2,34,3.3,7.6,5.4,5.5,5.5,5.4,1,1,5.695
19,SimB2,39,7.6,3.4,5.6,5.4,5.4,5.6,1,2,30.926
19,SimB1,43,7.3,3.6,5.4,5.5,7.5,3.4,1,2,15.005
19,SimA1,44,3.6,7.3,5.5,5.4,3.4,7.5,1,2,2.96
19,SimB2,45,7.6,3.6,5.6,5.6,5.4,5.8,3,2,3.2
19,SimB2,48,7.6,3.6,5.6,5.6,5.4,5.8,3,2,3.376
19,SimB2,49,7.7,3.5,5.6,5.6,5.4,5.8,3,2,3.567
19,SimB2,51,7.6,3.4,5.5,5.5,5.4,5.6,3,2,2.498
19,SimB2,53,7.3,3.6,5.4,5.5,5.2,5.7,1,2,29.727
19,SimA2,54,3.5,7.5,5.5,5.5,5.6,5.4,2,2,3.104
19,SimB2,55,7.4,3.6,5.4,5.6,5.2,5.8,1,2,12.493
19,SimA1,56,3.6,7.3,5.5,5.4,3.4,7.5,1,2,9.696
19,SimB2,57,7.5,3.3,5.4,5.4,5.3,5.5,2,2,7.95
19,SimA1,59,3.6,7.3,5.5,5.4,3.4,7.5,1,2,3.341
19,SimB2,60,7.6,3.4,5.5,5.5,5.4,5.6,3,2,2.494
19,SimB2,64,7.4,3.5,5.4,5.5,5.2,5.7,1,2,4.436
19,SimB1,67,7.6,3.6,5.7,5.5,7.8,3.4,1,2,4.962
19,SimB2,68,7.6,3.5,5.5,5.6,5.3,5.8,3,2,3.661
19,SimB2,72,7.6,3.4,5.5,5.5,5.3,5.7,1,2,3.918
19,SimA1,73,3.5,7.5,5.5,5.5,3.3,7.7,3,2,2.286
19,SimA1,75,3.7,7.5,5.6,5.6,3.6,7.6,2,2,2.336
19,SimA1,76,3.4,7.7,5.5,5.6,3.2,7.9,3,2,3.151
19,SimA1,77,3.6,7.5,5.5,5.6,3.4,7.7,3,2,2.318
19,SimB1,78,7.4,3.6,5.5,5.5,7.6,3.4,3,2,2.574
19,SimA2,80,3.3,7.5,5.3,5.5,5.5,5.3,3,2,12.974
19,SimB2,83,7.5,3.6,5.5,5.6,5.4,5.7,2,2,7.566
19,SimB2,85,7.4,3.5,5.5,5.4,5.4,5.5,2,2,8.014
19,SimB2,87,7.3,3.5,5.3,5.5,5.1,5.7,2,2,5.008
19,SimA1,88,3.3,7.5,5.3,5.5,3.1,7.7,3,2,2.834
19,SimB2,90,7.6,3.5,5.5,5.6,5.3,5.8,3,2,4.668
19,SimA2,91,3.6,7.3,5.5,5.4,5.7,5.2,1,2,3.345
19,SimA2,93,3.5,7.6,5.5,5.6,5.6,5.5,2,2,6.242
19,SimA2,95,3.6,7.3,5.5,5.4,5.7,5.2,3,2,7.68
19,SimA1,96,3.4,7.5,5.4,5.5,3.2,7.7,3,2,1.886
19,SimA1,100,3.5,7.7,5.6,5.6,3.4,7.8,2,2,2.369
19,SimA2,102,3.7,7.5,5.7,5.5,5.8,5.4,2,2,12.319
19,SimB2,105,7.6,3.6,5.7,5.5,5.6,5.6,3,2,7.072
19,SimB1,106,7.3,3.5,5.3,5.5,7.5,3.3,1,2,7.906
19,SimA2,107,3.6,7.5,5.5,5.6,5.6,5.5,2,2,10.321
19,SimB2,108,7.5,3.5,5.5,5.5,5.4,5.6,1,2,2.0
19,SimA1,110,3.4,7.6,5.5,5.5,3.3,7.7,1,2,2.061
19,SimB2,113,7.5,3.4,5.5,5.4,5.3,5.6,2,2,4.414
19,SimB1,115,7.3,3.6,5.4,5.5,7.5,3.4,3,2,6.513
19,SimB1,120,7.6,3.5,5.5,5.6,7.7,3.4,3,2,5.744
19,SimA2,122,3.4,7.5,5.4,5.5,5.6,5.3,3,2,7.238
19,SimB1,125,7.4,3.5,5.5,5.4,7.5,3.4,2,2,3.04
19,SimA2,126,3.4,7.6,5.5,5.5,5.7,5.3,3,2,2.607
19,SimA2,129,3.4,7.6,5.5,5.5,5.6,5.4,1,2,1.761
19,SimB2,130,7.5,3.4,5.5,5.4,5.3,5.6,2,2,3.87
19,SimB1,131,7.6,3.4,5.5,5.5,7.8,3.2,2,2,1.487
19,SimA2,134,3.5,7.5,5.4,5.6,5.5,5.5,2,3,2.098
19,SimA1,135,3.6,7.6,5.6,5.6,3.5,7.7,2,2,2.88
19,SimA2,136,3.7,7.3,5.6,5.4,5.8,5.2,3,2,6.415
19,SimB2,138,7.6,3.4,5.5,5.5,5.4,5.6,3,2,6.16
19,SimA1,140,3.4,7.6,5.5,5.5,3.2,7.8,3,2,4.608
19,SimB2,142,7.6,3.4,5.5,5.5,5.4,5.6,1,2,4.334
19,SimA1,143,3.5,7.5,5.4,5.6,3.3,7.7,3,2,5.748
19,SimB2,144,7.7,3.5,5.6,5.6,5.4,5.8,2,2,3.165
19,SimB1,148,7.4,3.6,5.4,5.6,7.6,3.4,3,2,5.794
19,SimB1,149,7.4,3.6,5.4,5.6,7.5,3.5,1,2,2.621
19,SimB2,150,7.4,3.6,5.5,5.5,5.4,5.6,3,2,2.707
19,SimB2,151,7.6,3.5,5.5,5.6,5.4,5.7,1,2,9.055
19,SimA2,153,3.4,7.5,5.4,5.5,5.6,5.3,3,2,10.111
19,SimA1,154,3.5,7.5,5.4,5.6,3.3,7.7,1,2,22.831
19,SimB1,155,7.5,3.6,5.5,5.6,7.6,3.5,1,2,9.247
19,SimB1,157,7.7,3.5,5.6,5.6,7.9,3.3,2,2,9.299
19,SimA2,160,3.6,7.3,5.5,5.4,5.6,5.3,2,2,5.311
19,SimB1,163,7.5,3.4,5.5,5.4,7.7,3.2,2,2,4.753
19,SimA2,165,3.6,7.6,5.6,5.6,5.8,5.4,1,2,3.168
19,SimA1,168,3.7,7.3,5.6,5.4,3.5,7.5,3,2,9.039
19,SimB2,170,7.3,3.6,5.4,5.5,5.3,5.6,2,2,6.271
19,SimA2,174,3.5,7.5,5.4,5.6,5.5,5.5,3,3,2.735
19,SimB1,176,7.6,3.4,5.5,5.5,7.8,3.2,2,2,2.4
19,SimB1,181,7.6,3.6,5.6,5.6,7.8,3.4,3,2,1.887
19,SimB1,183,7.6,3.4,5.6,5.4,7.8,3.2,2,1,7.2
19,SimA2,184,3.4,7.7,5.5,5.6,5.6,5.5,2,2,14.256
19,SimA1,186,3.4,7.5,5.5,5.4,3.2,7.7,1,1,5.246
19,SimA1,187,3.4,7.6,5.4,5.6,3.3,7.7,3,2,14.943
19,SimA2,190,3.5,7.5,5.5,5.5,5.6,5.4,2,2,2.048
19,SimB1,192,7.6,3.5,5.5,5.6,7.8,3.3,3,2,3.3
19,SimB1,194,7.6,3.3,5.5,5.4,7.7,3.2,1,2,3.377
19,SimA2,201,3.7,7.5,5.6,5.6,5.8,5.4,1,2,2.942
19,SimA1,203,3.5,7.6,5.5,5.6,3.4,7.7,2,2,1.743
19,SimB2,204,7.4,3.6,5.4,5.6,5.2,5.8,1,2,3.811
19,SimB1,206,7.3,3.7,5.4,5.6,7.5,3.5,3,2,3.297
19,SimB1,208,7.5,3.4,5.5,5.4,7.6,3.3,3,2,2.832
19,SimA2,209,3.5,7.7,5.6,5.6,5.8,5.4,1,2,2.433
19,SimB2,210,7.4,3.5,5.5,5.4,5.3,5.6,2,2,4.638
19,SimA2,211,3.7,7.5,5.6,5.6,5.7,5.5,2,2,1.758
19,SimA1,212,3.6,7.3,5.5,5.4,3.4,7.5,1,2,5.408
19,SimA2,213,3.6,7.3,5.5,5.4,5.6,5.3,1,2,5.296
19,SimB2,220,7.6,3.3,5.5,5.4,5.3,5.6,1,2,3.089
19,SimA2,222,3.4,7.6,5.4,5.6,5.5,5.5,1,3,1.923
19,SimA2,225,3.4,7.5,5.5,5.4,5.7,5.2,2,2,2.462
19,SimA1,227,3.3,7.5,5.4,5.4,3.2,7.6,3,2,2.225
19,SimA1,230,3.7,7.5,5.6,5.6,3.5,7.7,1,2,3.072
19,SimB1,231,7.6,3.4,5.5,5.5,7.7,3.3,1,2,4.657
19,SimB1,234,7.5,3.5,5.5,5.5,7.6,3.4,1,2,1.39
19,SimA2,239,3.6,7.4,5.5,5.5,5.7,5.3,3,2,2.417
20,SimB1,2,7.5,3.5,5.5,5.5,7.6,3.4,3,2,13.363
20,SimA2,4,3.6,7.4,5.5,5.5,5.7,5.3,1,2,7.781
20,SimA1,5,3.6,7.3,5.5,5.4,3.4,7.5,2,2,8.689
20,SimA1,7,3.5,7.5,5.5,5.5,3.4,7.6,1,2,8.563
20,SimA1,8,3.4,7.6,5.4,5.6,3.3,7.7,1,2,7.299
20,SimA1,10,3.3,7.5,5.4,5.4,3.2,7.6,2,2,5.617
20,SimA2,17,3.6,7.5,5.5,5.6,5.6,5.5,3,3,16.993
20,SimA2,18,3.4,7.5,5.4,5.5,5.6,5.3,3,3,12.418
20,SimB2,19,7.4,3.5,5.4,5.5,5.2,5.7,1,2,6.627
20,SimB1,21,7.3,3.6,5.4,5.5,7.5,3.4,1,2,3.317
20,SimB1,24,7.3,3.5,5.3,5.5,7.5,3.3,3,2,2.674
20,SimB1,26,7.4,3.6,5.4,5.6,7.5,3.5,1,2,3.44
20,SimB2,27,7.6,3.4,5.6,5.4,5.4,5.6,1,2,3.071
20,SimA1,28,3.7,7.3,5.6,5.4,3.5,7.5,3,2,7.006
20,SimB1,29,7.4,3.6,5.4,5.6,7.6,3.4,1,2,2.928
20,SimA2,30,3.5,7.5,5.5,5.5,5.6,5.4,3,2,2.528
20,SimB2,31,7.4,3.6,5.4,5.6,5.2,5.8,3,2,6.877
20,SimA2,32,3.6,7.3,5.5,5.4,5.7,5.2,1,2,3.392
20,SimA1,36,3.5,7.6,5.5,5.6,3.4,7.7,1,2,2.99
20,SimA2,40,3.3,7.5,5.4,5.4,5.6,5.2,2,2,1.374
20,SimA2,41,3.4,7.6,5.5,5.5,5.7,5.3,1,2,4.869
20,SimB2,42,7.6,3.5,5.5,5.6,5.4,5.7,3,2,6.287
20,SimA2,44,3.7,7.3,5.6,5.4,5.8,5.2,3,2,7.837
20,SimA2,47,3.5,7.5,5.5,5.5,5.6,5.4,3,2,2.655
20,SimA2,49,3.7,7.5,5.7,5.5,5.8,5.4,1,2,4.527
20,SimB1,51,7.6,3.5,5.5,5.6,7.8,3.3,1,2,2.257
20,SimB1,52,7.4,3.5,5.5,5.4,7.5,3.4,2,2,2.176
20,SimB1,53,7.5,3.3,5.4,5.4,7.6,3.2,2,2,3.118
20,SimB2,55,7.5,3.6,5.5,5.6,5.4,5.7,3,2,4.994
20,SimB1,61,7.7,3.5,5.6,5.6,7.8,3.4,1,2,3.744
20,SimA2,62,3.7,7.5,5.6,5.6,5.7,5.5,2,2,7.91
20,SimA1,63,3.5,7.7,5.6,5.6,3.4,7.8,2,2,2.304
20,SimB1,65,7.4,3.5,5.4,5.5,7.5,3.4,3,2,4.065
20,SimA2,67,3.4,7.6,5.5,5.5,5.6,5.4,3,2,2.928
20,SimB2,69,7.6,3.5,5.5,5.6,5.3,5.8,1,2,3.104
20,SimB2,70,7.6,3.4,5.5,5.5,5.3,5.7,1,2,1.921
20,SimB2,74,7.7,3.5,5.6,5.6,5.4,5.8,3,2,4.498
20,SimA1,75,3.3,7.5,5.3,5.5,3.1,7.7,3,2,4.175
20,SimA2,76,3.7,7.5,5.6,5.6,5.8,5.4,3,2,3.296
20,SimB1,78,7.5,3.4,5.5,5.4,7.6,3.3,1,2,3.504
20,SimA2,82,3.6,7.3,5.5,5.4,5.6,5.3,1,2,3.363
20,SimA2,83,3.5,7.6,5.5,5.6,5.6,5.5,2,3,4.734
20,SimA2,84,3.6,7.6,5.6,5.6,5.8,5.4,2,2,2.162
20,SimA1,86,3.6,7.3,5.5,5.4,3.4,7.5,2,2,3.439
20,SimA2,89,3.6,7.3,5.5,5.4,5.7,5.2,1,2,2.463
20,SimB2,90,7.6,3.4,5.5,5.5,5.4,5.6,1,2,1.855
20,SimB1,91,7.5,3.4,5.5,5.4,7.7,3.2,2,2,3.341
20,SimA1,94,3.5,7.6,5.5,5.6,3.4,7.7,3,2,5.213
20,SimB1,96,7.6,3.6,5.7,5.5,7.8,3.4,2,2,3.024
20,SimA2,98,3.4,7.5,5.5,5.4,5.7,5.2,1,2,2.958
20,SimA1,99,3.6,7.4,5.5,5.5,3.5,7.5,3,2,2.303
20,SimA1,100,3.7,7.5,5.6,5.6,3.6,7.6,3,2,2.334
20,SimA1,101,3.3,7.6,5.4,5.5,3.1,7.8,2,2,3.887
20,SimB1,102,7.6,3.5,5.5,5.6,7.8,3.3,3,2,2.879
20,SimB2,103,7.5,3.5,5.5,5.5,5.4,5.6,3,2,2.257
20,SimB1,104,7.6,3.4,5.5,5.5,7.7,3.3,1,2,2.976
20,SimB1,109,7.6,3.6,5.6,5.6,7.8,3.4,1,2,1.857
20,SimB2,111,7.5,3.3,5.4,5.4,5.3,5.5,3,2,2.687
20,SimA1,113,3.6,7.5,5.5,5.6,3.4,7.7,2,2,1.906
20,SimA1,114,3.4,7.7,5.5,5.6,3.2,7.9,1,2,2.527
20,SimA1,115,3.5,7.5,5.5,5.5,3.3,7.7,2,2,1.555
20,SimA1,119,3.4,7.6,5.5,5.5,3.2,7.8,3,2,1.886
20,SimA2,120,3.3,7.6,5.4,5.5,5.5,5.4,1,3,2.751
20,SimA1,123,3.6,7.6,5.6,5.6,3.5,7.7,1,2,2.046
20,SimB1,125,7.7,3.5,5.6,5.6,7.9,3.3,2,2,2.945
20,SimB1,127,7.6,3.4,5.5,5.5,7.7,3.3,1,2,2.735
20,SimA2,129,3.4,7.7,5.5,5.6,5.6,5.5,2,3,3.505
20,SimA1,130,3.5,7.5,5.4,5.6,3.3,7.7,2,2,4.656
20,SimA1,131,3.4,7.5,5.5,5.4,3.2,7.7,2,2,3.075
20,SimB1,133,7.5,3.6,5.5,5.6,7.6,3.5,2,2,9.376
20,SimA1,134,3.4,7.6,5.5,5.5,3.3,7.7,3,2,2.752
20,SimB2,135,7.3,3.5,5.3,5.5,5.1,5.7,2,2,3.649
20,SimB1,136,7.6,3.4,5.5,5.5,7.8,3.2,1,2,3.086
20,SimA1,139,3.7,7.5,5.6,5.6,3.5,7.7,3,2,5.169
20,SimB2,140,7.6,3.5,5.5,5.6,5.3,5.8,1,2,2.767
20,SimA1,141,3.4,7.5,5.4,5.5,3.3,7.6,1,2,3.774
20,SimB2,145,7.6,3.6,5.6,5.6,5.4,5.8,1,2,3.392
20,SimA1,146,3.5,7.5,5.4,5.6,3.3,7.7,3,2,3.423
20,SimA2,147,3.5,7.5,5.5,5.5,5.6,5.4,1,2,2.91
20,SimA2,149,3.5,7.5,5.4,5.6,5.5,5.5,3,3,3.072
20,SimB1,157,7.6,3.4,5.5,5.5,7.7,3.3,2,2,1.712
20,SimA1,159,3.6,7.3,5.5,5.4,3.4,7.5,3,2,2.817
20,SimA2,160,3.4,7.5,5.4,5.5,5.6,5.3,3,2,3.231
20,SimB2,162,7.6,3.4,5.5,5.5,5.4,5.6,2,2,2.578
20,SimB1,163,7.3,3.6,5.4,5.5,7.5,3.4,1,2,4.271
20,SimA1,164,3.4,7.5,5.4,5.5,3.2,7.7,1,2,3.054
20,SimB1,166,7.3,3.7,5.4,5.6,7.5,3.5,3,2,4.608
20,SimA2,168,3.3,7.5,5.3,5.5,5.5,5.3,1,3,4.461
20,SimB2,171,7.4,3.5,5.5,5.4,5.4,5.5,2,2,3.553
20,SimB2,173,7.3,3.7,5.4,5.6,5.2,5.8,2,2,5.023
20,SimB1,178,7.6,3.5,5.5,5.6,7.7,3.4,2,2,4.496
20,SimA2,181,3.4,7.6,5.4,5.6,5.5,5.5,3,3,2.384
20,SimB1,183,7.6,3.4,5.6,5.4,7.8,3.2,3,2,2.721
20,SimA1,184,3.5,7.5,5.5,5.5,3.3,7.7,3,2,2.321
20,SimB2,187,7.6,3.3,5.5,5.4,5.3,5.6,1,2,3.153
20,SimA1,188,3.7,7.5,5.7,5.5,3.6,7.6,3,2,4.286
20,SimB2,189,7.5,3.4,5.5,5.4,5.3,5.6,1,2,5.201
20,SimA2,192,3.6,7.3,5.5,5.4,5.6,5.3,3,2,4.078
20,SimA2,194,3.5,7.5,5.5,5.5,5.6,5.4,3,2,1.905
20,SimB2,196,7.7,3.5,5.6,5.6,5.4,5.8,2,2,2.367
20,SimA2,198,3.5,7.7,5.6,5.6,5.8,5.4,3,2,2.576
20,SimA2,199,3.5,7.6,5.5,5.6,5.6,5.5,1,3,3.263
20,SimB2,200,7.6,3.6,5.6,5.6,5.4,5.8,1,2,2.928
20,SimB2,201,7.6,3.4,5.5,5.5,5.4,5.6,2,2,2.783
20,SimB1,204,7.6,3.6,5.6,5.6,7.7,3.5,1,2,2.832
20,SimB2,206,7.4,3.6,5.5,5.5,5.4,5.6,1,2,2.656
20,SimB2,209,7.3,3.6,5.4,5.5,5.2,5.7,2,2,3.152
20,SimB1,210,7.6,3.4,5.5,5.5,7.8,3.2,3,2,1.775
20,SimA2,211,3.5,7.5,5.4,5.6,5.5,5.5,2,3,2.225
20,SimB2,217,7.6,3.6,5.7,5.5,5.6,5.6,2,3,2.622
20,SimB1,218,7.6,3.3,5.5,5.4,7.7,3.2,3,2,3.085
20,SimB1,219,7.4,3.6,5.5,5.5,7.6,3.4,1,2,2.641
20,SimB1,225,7.4,3.5,5.5,5.4,7.5,3.4,3,2,3.535
20,SimB2,228,7.5,3.4,5.5,5.4,5.3,5.6,2,2,3.215
20,SimB2,229,7.4,3.6,5.4,5.6,5.2,5.8,1,2,4.529
20,SimA1,230,3.6,7.3,5.5,5.4,3.4,7.5,1,2,3.423
20,SimB2,231,7.3,3.6,5.4,5.5,5.3,5.6,2,2,4.048
20,SimB2,233,7.4,3.5,5.5,5.4,5.3,5.6,1,3,3.281
20,SimA1,237,3.5,7.5,5.5,5.5,3.3,7.7,1,2,2.222
20,SimB2,239,7.6,3.4,5.5,5.5,5.4,5.6,3,2,1.937
21,SimA2,2,3.7,7.5,5.6,5.6,5.8,5.4,1,2,25.058
