Sub,Effect,Trial,A1,A2,B1,B2,C1,C2,resp,response,RT
2,AttR2,2,2.3,4.6,4.4,2.5,4.4,1.8,3,2,24.993
2,SimB2,2,4.3,2.7,3.4,3.6,3.2,3.8,2,2,39.567
2,SimB1,3,4.4,2.6,3.5,3.5,4.5,2.5,3,2,22.32
2,SimA2,5,2.7,4.5,3.6,3.6,3.8,3.4,3,2,10.943
2,Com2,6,5.4,5.6,4.5,6.5,3.4,7.6,2,2,40.291
2,AttR2,6,2.2,4.8,4.5,2.5,4.5,1.9,2,2,37.36
2,SimB2,6,4.5,2.6,3.6,3.5,3.5,3.6,3,1,33.519
2,Com1,8,7.2,3.9,5.3,5.8,4.4,6.7,1,2,66.626
2,SimB2,8,4.6,2.6,3.6,3.6,3.5,3.7,1,2,11.774
2,AttR1,9,2.6,4.4,4.7,2.3,2.0,4.4,1,1,17.617
2,SimB2,9,4.6,2.6,3.6,3.6,3.5,3.7,1,2,5.344
2,SimA1,10,2.5,4.5,3.5,3.5,2.4,4.6,3,2,25.725
2,AttR2,11,2.5,4.5,4.7,2.3,4.7,1.6,2,2,12.382
2,Com1,12,7.4,3.6,5.4,5.6,4.5,6.5,1,2,29.827
2,AttR2,12,2.6,4.5,4.6,2.5,4.6,1.9,1,2,7.712
2,SimA1,13,2.4,4.7,3.5,3.6,2.2,4.9,1,2,12.527
2,AttR1,14,2.6,4.6,4.8,2.4,1.9,4.6,3,1,11.311
2,AttR2,15,2.5,4.5,4.4,2.6,4.4,2.0,3,2,41.761
2,SimB1,15,4.5,2.5,3.5,3.5,4.7,2.3,2,2,10.303
2,Com1,16,7.3,3.6,5.2,5.7,4.1,6.8,3,2,20.419
2,AttR1,16,2.2,4.8,4.5,2.5,1.6,4.8,3,2,23.982
2,Com2,17,5.3,5.6,4.4,6.5,3.3,7.6,1,1,8.498
2,Com2,18,5.3,5.6,4.3,6.6,3.3,7.6,1,1,9.874
2,AttR1,18,2.3,4.6,4.5,2.4,1.7,4.6,1,2,32.35
2,SimB1,18,4.6,2.6,3.6,3.6,4.8,2.4,3,2,11.665
2,Com1,19,7.4,3.6,5.3,5.7,4.4,6.6,2,2,32.178
2,AttR1,19,2.4,4.4,4.7,2.1,1.7,4.4,3,1,11.633
2,SimA2,19,2.4,4.6,3.4,3.6,3.6,3.4,2,1,6.558
2,Com2,20,5.2,5.7,4.1,6.8,3.2,7.7,1,1,33.953
2,AttR1,20,2.5,4.6,4.4,2.7,1.9,4.6,3,2,39.296
2,AttR2,21,2.6,4.6,4.8,2.4,4.8,1.8,3,1,10.607
2,SimB2,22,4.3,2.5,3.4,3.4,3.3,3.5,1,2,10.993
2,SimB2,23,4.6,2.7,3.6,3.7,3.5,3.8,3,3,7.072
2,AttR1,24,2.5,4.5,4.4,2.6,1.8,4.5,1,2,15.713
2,SimB2,24,4.4,2.6,3.5,3.5,3.4,3.6,2,2,14.832
2,AttR1,25,2.5,4.5,4.8,2.2,1.9,4.5,2,1,13.504
2,AttR2,26,2.6,4.4,4.7,2.3,4.7,1.7,1,1,16.56
2,SimA1,26,2.7,4.5,3.6,3.6,2.6,4.6,3,2,3.664
2,AttR1,27,2.4,4.7,4.6,2.5,1.6,4.7,3,2,28.176
2,AttR2,28,2.5,4.5,4.8,2.2,4.8,1.4,3,1,17.008
2,Com2,29,5.3,5.6,4.4,6.5,3.2,7.7,2,1,12.899
2,Com2,30,5.3,5.7,4.3,6.7,3.3,7.7,3,2,28.207
2,AttR1,30,2.5,4.4,4.5,2.4,1.8,4.4,2,1,14.45
2,SimA2,30,2.6,4.7,3.6,3.7,3.8,3.5,2,2,22.673
2,Com2,31,5.2,5.6,4.1,6.7,3.3,7.5,1,2,56.062
2,Com1,32,7.4,3.5,5.3,5.6,4.3,6.6,1,2,16.063
2,AttR1,32,2.5,4.5,4.7,2.3,1.8,4.5,3,1,7.089
2,Com2,33,5.4,5.8,4.5,6.7,3.3,7.9,1,2,49.827
2,AttR1,33,2.2,4.8,4.5,2.5,1.5,4.8,3,2,10.926
2,SimB1,33,4.5,2.5,3.5,3.5,4.6,2.4,1,2,10.351
2,Com1,35,7.4,3.8,5.4,5.8,4.3,6.9,1,2,12.85
2,AttR1,35,2.3,4.6,4.4,2.5,1.5,4.6,2,2,20.317
2,Com2,36,5.2,5.8,4.1,6.9,3.1,7.9,1,2,19.473
2,Com1,37,7.4,3.7,5.4,5.7,4.4,6.7,1,2,24.064
2,SimA2,37,2.5,4.3,3.4,3.4,3.6,3.2,3,2,7.505
2,AttR2,38,2.5,4.4,4.5,2.4,4.5,1.6,1,1,18.913
2,SimA2,38,2.5,4.5,3.5,3.5,3.6,3.4,1,2,3.375
2,AttR1,39,2.3,4.8,4.5,2.6,1.6,4.8,1,2,10.99
2,SimB2,39,4.5,2.5,3.5,3.5,3.4,3.6,3,2,3.105
2,Com2,40,5.3,5.8,4.3,6.8,3.4,7.7,1,2,17.967
2,AttR2,40,2.4,4.7,4.6,2.5,4.6,1.7,1,2,21.425
2,SimA1,40,2.6,4.7,3.6,3.7,2.5,4.8,1,2,10.862
2,Com2,42,5.4,5.8,4.3,6.9,3.5,7.7,1,2,20.688
2,SimB1,43,4.3,2.7,3.4,3.6,4.4,2.6,3,2,10.752
2,AttR1,44,2.6,4.5,4.6,2.5,1.9,4.5,2,1,20.688
2,Com2,46,5.4,5.7,4.4,6.7,3.5,7.6,2,2,33.359
2,SimA2,46,2.4,4.7,3.5,3.6,3.7,3.4,3,2,15.442
2,Com1,47,7.4,3.5,5.3,5.6,4.4,6.5,1,2,17.618
2,Com2,48,5.3,5.7,4.4,6.6,3.4,7.6,2,2,15.999
2,AttR2,48,2.2,4.6,4.4,2.4,4.4,1.6,1,2,11.104
2,AttR2,49,2.3,4.6,4.5,2.4,4.5,1.7,3,2,45.584
2,SimA2,49,2.7,4.4,3.6,3.5,3.8,3.3,1,2,13.166
2,Com2,50,5.3,5.7,4.2,6.8,3.3,7.7,1,2,10.865
2,SimB1,50,4.4,2.7,3.5,3.6,4.5,2.6,3,2,7.646
2,AttR1,51,2.5,4.5,4.6,2.4,1.9,4.5,2,1,8.031
2,SimB1,51,4.6,2.6,3.6,3.6,4.8,2.4,1,2,9.505
2,Com2,52,5.3,5.8,4.3,6.8,3.2,7.9,2,2,11.438
2,SimA1,52,2.7,4.4,3.6,3.5,2.5,4.6,3,2,4.001
2,Com1,53,7.1,3.9,5.2,5.8,4.1,6.9,3,2,11.055
2,Com1,54,7.4,3.6,5.3,5.7,4.3,6.7,2,2,18.272
2,Com1,55,7.3,3.7,5.3,5.7,4.2,6.8,3,2,24.257
2,SimB2,55,4.5,2.5,3.5,3.5,3.3,3.7,2,2,5.137
2,Com1,56,7.4,3.7,5.3,5.8,4.2,6.9,3,2,11.553
2,AttR2,56,2.6,4.6,4.8,2.4,4.8,1.7,2,1,18.35
2,SimA1,56,2.4,4.6,3.4,3.6,2.2,4.8,1,2,19.743
2,Com2,57,5.4,5.6,4.4,6.6,3.5,7.5,2,1,19.568
2,SimB1,57,4.3,2.5,3.4,3.4,4.4,2.4,1,2,7.455
2,Com2,58,5.3,5.8,4.4,6.7,3.2,7.9,2,2,19.73
2,SimA1,58,2.5,4.3,3.4,3.4,2.4,4.4,1,2,6.434
2,Com1,59,7.3,3.9,5.4,5.8,4.5,6.7,1,2,13.741
2,AttR1,60,2.0,4.6,4.3,2.3,1.4,4.6,2,2,11.6
2,AttR2,61,2.4,4.4,4.7,2.1,4.7,1.3,2,1,8.563
2,AttR2,62,2.2,4.8,4.5,2.5,4.5,1.9,3,2,14.462
2,SimA2,62,2.6,4.4,3.5,3.5,3.7,3.3,2,2,7.906
2,Com1,63,7.3,3.6,5.3,5.6,4.4,6.5,1,2,24.591
2,AttR2,63,2.3,4.8,4.5,2.6,4.5,1.9,1,2,5.442
2,SimA2,63,2.4,4.6,3.5,3.5,3.7,3.3,1,2,2.83
2,Com1,64,7.4,3.7,5.3,5.8,4.3,6.8,2,2,5.489
2,AttR2,64,2.0,4.6,4.3,2.3,4.3,1.6,1,2,7.645
2,SimB2,64,4.4,2.7,3.5,3.6,3.4,3.7,1,2,14.656
2,Com1,65,7.3,3.6,5.3,5.6,4.2,6.7,1,2,15.007
2,SimA1,65,2.6,4.4,3.5,3.5,2.5,4.5,3,2,5.938
2,Com2,66,5.3,5.8,4.2,6.9,3.3,7.8,2,1,9.455
2,AttR2,67,2.5,4.5,4.6,2.4,4.6,1.8,2,1,16.225
2,SimA1,67,2.4,4.6,3.5,3.5,2.2,4.8,1,2,3.969
2,SimB1,68,4.5,2.6,3.6,3.5,4.6,2.5,3,2,8.112
2,Com2,69,5.3,5.6,4.2,6.7,3.4,7.5,1,2,21.009
2,AttR1,69,2.2,4.6,4.4,2.4,1.4,4.6,3,2,4.899
2,Com1,70,7.3,3.8,5.3,5.8,4.3,6.8,3,2,6.605
2,SimA2,72,2.7,4.5,3.6,3.6,3.8,3.4,2,2,6.958
2,Com1,73,7.4,3.6,5.4,5.6,4.4,6.6,3,2,8.753
2,AttR2,73,1.9,4.9,4.8,2.0,4.8,1.4,1,2,11.969
2,SimA1,74,2.7,4.5,3.6,3.6,2.5,4.7,2,2,6.241
2,AttR1,75,1.9,4.9,4.8,2.0,1.2,4.9,2,2,7.553
2,AttR2,76,2.5,4.6,4.4,2.7,4.4,2.1,1,2,12.961
2,AttR1,77,2.6,4.6,4.8,2.4,1.9,4.6,1,1,7.645
2,SimB1,77,4.6,2.7,3.6,3.7,4.7,2.6,1,2,6.449
2,Com2,78,5.2,5.6,4.3,6.5,3.1,7.7,3,2,9.646
2,Com1,79,7.3,3.5,5.2,5.6,4.3,6.5,2,2,5.232
2,Com1,80,7.3,3.5,5.2,5.6,4.1,6.7,2,2,6.991
6,AttR1,1,2.6,4.6,4.8,2.4,1.9,4.6,2,2,63.798
6,AttR1,2,2.5,4.4,4.5,2.4,1.8,4.4,3,2,43.797
6,Com1,2,7.4,3.8,5.4,5.8,4.3,6.9,2,2,14.641
6,SimB2,2,4.6,2.7,3.6,3.7,3.5,3.8,3,2,6.21
6,AttR2,3,2.2,4.8,4.5,2.5,4.5,1.9,3,1,52.4
6,Com2,4,5.3,5.8,4.4,6.7,3.2,7.9,1,1,8.094
6,AttR1,5,2.2,4.8,4.5,2.5,1.6,4.8,3,2,19.651
6,SimA1,6,2.7,4.5,3.6,3.6,2.5,4.7,1,1,6.355
6,Com2,7,5.4,5.6,4.5,6.5,3.4,7.6,1,1,6.131
6,AttR2,8,2.3,4.6,4.4,2.5,4.4,1.8,3,2,24.068
6,AttR1,9,2.2,4.8,4.5,2.5,1.5,4.8,1,2,15.265
6,Com1,9,7.2,3.9,5.3,5.8,4.4,6.7,2,2,7.47
6,AttR2,10,2.6,4.6,4.8,2.4,4.8,1.8,1,1,24.611
6,Com1,10,7.3,3.6,5.2,5.7,4.1,6.8,1,2,7.39
6,SimA2,10,2.6,4.4,3.5,3.5,3.7,3.3,1,2,6.511
6,Com2,11,5.3,5.7,4.3,6.7,3.3,7.7,2,2,27.648
6,SimA2,11,2.7,4.5,3.6,3.6,3.8,3.4,2,2,34.672
6,AttR1,12,2.6,4.6,4.8,2.4,1.9,4.6,1,1,10.755
6,Com2,12,5.4,5.8,4.3,6.9,3.5,7.7,1,1,8.387
6,AttR2,13,2.5,4.4,4.5,2.4,4.5,1.6,1,1,15.763
6,SimB1,13,4.6,2.6,3.6,3.6,4.8,2.4,1,1,3.742
6,AttR1,14,2.0,4.6,4.3,2.3,1.4,4.6,1,1,26.178
6,AttR2,15,2.5,4.5,4.7,2.3,4.7,1.6,3,1,22.661
6,Com2,15,5.3,5.6,4.2,6.7,3.4,7.5,2,1,14.447
6,SimB1,15,4.4,2.6,3.5,3.5,4.5,2.5,1,2,6.687
6,Com2,16,5.4,5.6,4.4,6.6,3.5,7.5,2,1,5.265
6,SimA2,16,2.7,4.4,3.6,3.5,3.8,3.3,1,2,3.089
6,SimB2,17,4.5,2.5,3.5,3.5,3.3,3.7,1,2,6.815
6,AttR1,18,2.3,4.6,4.5,2.4,1.7,4.6,3,2,8.739
6,Com2,18,5.4,5.7,4.4,6.7,3.5,7.6,2,1,14.527
6,AttR1,19,1.9,4.9,4.8,2.0,1.2,4.9,2,2,43.953
6,SimA2,19,2.5,4.3,3.4,3.4,3.6,3.2,2,3,1.969
6,AttR1,20,2.5,4.5,4.7,2.3,1.8,4.5,3,1,11.027
6,SimA1,20,2.4,4.7,3.5,3.6,2.2,4.9,1,3,1.598
6,Com2,21,5.3,5.6,4.4,6.5,3.3,7.6,1,1,10.69
6,AttR1,22,2.4,4.4,4.7,2.1,1.7,4.4,3,1,13.842
6,Com2,22,5.2,5.6,4.3,6.5,3.1,7.7,2,1,7.807
6,AttR2,23,2.2,4.8,4.5,2.5,4.5,1.9,3,2,25.557
6,Com1,23,7.4,3.6,5.4,5.6,4.5,6.5,2,2,1.391
6,SimB1,23,4.3,2.5,3.4,3.4,4.4,2.4,2,3,6.688
6,Com2,24,5.3,5.7,4.2,6.8,3.3,7.7,1,1,24.198
6,SimB2,24,4.4,2.6,3.5,3.5,3.4,3.6,1,1,3.07
6,Com1,25,7.4,3.5,5.3,5.6,4.4,6.5,2,2,5.873
6,SimB2,25,4.6,2.6,3.6,3.6,3.5,3.7,1,1,5.024
6,AttR2,26,1.9,4.9,4.8,2.0,4.8,1.4,2,2,27.246
6,Com1,26,7.3,3.7,5.3,5.7,4.2,6.8,1,2,3.632
6,SimA1,26,2.4,4.6,3.5,3.5,2.2,4.8,2,2,2.272
6,Com1,27,7.1,3.9,5.2,5.8,4.1,6.9,1,2,3.533
6,AttR2,28,2.5,4.5,4.4,2.6,4.4,2.0,2,1,17.12
6,AttR1,29,2.5,4.5,4.4,2.6,1.8,4.5,2,1,15.89
6,Com2,29,5.3,5.8,4.3,6.8,3.4,7.7,3,1,10.48
6,SimA2,29,2.4,4.6,3.5,3.5,3.7,3.3,3,2,2.753
6,AttR1,30,2.3,4.8,4.5,2.6,1.6,4.8,3,1,21.487
6,Com1,30,7.4,3.7,5.4,5.7,4.4,6.7,3,2,12.559
6,SimB2,30,4.3,2.7,3.4,3.6,3.2,3.8,1,2,3.328
6,Com1,31,7.4,3.6,5.3,5.7,4.3,6.7,2,2,10.592
6,AttR2,32,2.4,4.7,4.6,2.5,4.6,1.7,1,2,14.734
6,AttR2,33,2.2,4.6,4.4,2.4,4.4,1.6,1,2,9.538
6,Com2,33,5.3,5.7,4.4,6.6,3.4,7.6,2,1,18.848
6,SimA2,33,2.4,4.6,3.4,3.6,3.6,3.4,1,2,8.224
6,AttR2,34,2.6,4.5,4.6,2.5,4.6,1.9,1,2,24.591
6,Com1,34,7.4,3.7,5.3,5.8,4.3,6.8,1,2,15.182
6,SimB2,34,4.3,2.5,3.4,3.4,3.3,3.5,2,2,2.688
6,Com1,35,7.4,3.6,5.4,5.6,4.4,6.6,1,2,4.018
6,Com1,36,7.3,3.5,5.2,5.6,4.3,6.5,2,2,1.967
6,SimB2,36,4.6,2.6,3.6,3.6,3.5,3.7,2,1,8.686
6,AttR1,38,2.2,4.6,4.4,2.4,1.4,4.6,3,2,16.161
6,SimB1,39,4.5,2.5,3.5,3.5,4.6,2.4,2,1,4.049
6,Com1,40,7.3,3.6,5.3,5.6,4.4,6.5,1,2,3.922
6,SimB2,40,4.5,2.5,3.5,3.5,3.4,3.6,1,2,2.047
6,AttR1,41,2.4,4.7,4.6,2.5,1.6,4.7,1,2,22.288
6,SimA1,42,2.6,4.7,3.6,3.7,2.5,4.8,3,3,2.416
6,SimB2,43,4.5,2.6,3.6,3.5,3.5,3.6,2,3,2.609
6,SimB1,44,4.3,2.7,3.4,3.6,4.4,2.6,3,2,3.63
6,SimA1,45,2.4,4.6,3.4,3.6,2.2,4.8,1,2,3.568
6,AttR1,47,2.5,4.6,4.4,2.7,1.9,4.6,1,1,32.591
6,Com2,48,5.3,5.8,4.3,6.8,3.2,7.9,1,1,10.062
6,Com2,50,5.2,5.7,4.1,6.8,3.2,7.7,3,1,3.071
6,SimB1,50,4.5,2.5,3.5,3.5,4.7,2.3,2,2,5.648
6,AttR2,52,2.5,4.5,4.6,2.4,4.6,1.8,1,1,24.368
6,Com1,52,7.3,3.6,5.3,5.6,4.2,6.7,3,2,15.425
6,SimB1,52,4.6,2.6,3.6,3.6,4.8,2.4,1,2,3.343
6,Com1,53,7.4,3.5,5.3,5.6,4.3,6.6,2,2,4.784
6,SimB1,53,4.5,2.6,3.6,3.5,4.6,2.5,3,2,5.233
6,AttR2,54,2.6,4.4,4.7,2.3,4.7,1.7,1,2,22.576
6,Com2,54,5.4,5.8,4.5,6.7,3.3,7.9,3,2,5.938
6,SimA2,54,2.7,4.5,3.6,3.6,3.8,3.4,1,2,4.639
6,Com1,55,7.4,3.7,5.3,5.8,4.2,6.9,1,2,8.479
6,SimB1,55,4.6,2.7,3.6,3.7,4.7,2.6,1,2,2.079
6,AttR2,56,2.6,4.6,4.8,2.4,4.8,1.7,3,2,5.762
6,Com1,57,7.3,3.8,5.3,5.8,4.3,6.8,2,2,4.429
6,AttR2,59,2.5,4.5,4.8,2.2,4.8,1.4,3,2,18.243
6,SimA1,60,2.6,4.4,3.5,3.5,2.5,4.5,2,2,5.551
6,AttR2,61,2.4,4.4,4.7,2.1,4.7,1.3,1,2,25.407
6,AttR1,62,2.3,4.6,4.4,2.5,1.5,4.6,3,2,9.535
6,SimA1,62,2.5,4.5,3.5,3.5,2.4,4.6,2,2,5.167
6,AttR1,63,2.6,4.4,4.7,2.3,2.0,4.4,3,2,13.47
6,Com2,63,5.2,5.8,4.1,6.9,3.1,7.9,1,2,8.656
6,AttR1,64,2.6,4.5,4.6,2.5,1.9,4.5,2,2,17.281
6,Com1,64,7.3,3.9,5.4,5.8,4.5,6.7,3,2,5.2
6,AttR2,65,2.0,4.6,4.3,2.3,4.3,1.6,1,2,22.545
6,SimA1,65,2.7,4.5,3.6,3.6,2.6,4.6,2,1,7.871
6,Com2,66,5.3,5.8,4.2,6.9,3.3,7.8,1,2,4.084
6,SimB1,66,4.4,2.7,3.5,3.6,4.5,2.6,3,2,6.322
6,Com1,67,7.4,3.6,5.3,5.7,4.4,6.6,2,2,4.255
6,Com2,69,5.3,5.6,4.3,6.6,3.3,7.6,1,2,3.569
6,SimA1,70,2.7,4.4,3.6,3.5,2.5,4.6,2,2,2.271
6,AttR1,71,2.5,4.5,4.6,2.4,1.9,4.5,2,2,9.073
6,Com2,71,5.2,5.6,4.1,6.7,3.3,7.5,3,2,8.751
6,AttR2,72,2.3,4.8,4.5,2.6,4.5,1.9,2,2,4.465
6,Com2,74,5.3,5.6,4.4,6.5,3.2,7.7,2,2,5.871
6,SimA2,75,2.5,4.5,3.5,3.5,3.6,3.4,1,2,7.056
6,SimB2,76,4.4,2.7,3.5,3.6,3.4,3.7,1,2,1.539
6,AttR2,77,2.5,4.6,4.4,2.7,4.4,2.1,2,1,5.007
6,SimA1,77,2.5,4.3,3.4,3.4,2.4,4.4,1,2,1.505
6,AttR2,78,2.3,4.6,4.5,2.4,4.5,1.7,2,2,4.447
6,AttR1,79,2.5,4.5,4.8,2.2,1.9,4.5,2,2,3.183
6,SimA2,79,2.4,4.7,3.5,3.6,3.7,3.4,1,2,2.743
6,Com1,80,7.3,3.5,5.2,5.6,4.1,6.7,2,2,8.576
6,SimA2,80,2.6,4.7,3.6,3.7,3.8,3.5,2,2,2.096
7,Com2,1,5.3,5.7,4.2,6.8,3.3,7.7,1,3,36.006
7,AttR1,1,2.4,4.4,4.7,2.1,1.7,4.4,3,2,15.638
7,SimB2,1,4.6,2.6,3.6,3.6,3.5,3.7,2,3,14.838
7,AttR2,2,1.9,4.9,4.8,2.0,4.8,1.4,3,2,11.534
7,SimB1,2,4.6,2.6,3.6,3.6,4.8,2.4,2,2,9.666
7,Com1,4,7.3,3.5,5.2,5.6,4.3,6.5,1,2,23.186
7,Com2,5,5.2,5.7,4.1,6.8,3.2,7.7,2,1,9.09
7,Com1,6,7.2,3.9,5.3,5.8,4.4,6.7,1,2,8.611
7,AttR2,6,2.6,4.5,4.6,2.5,4.6,1.9,1,1,8.594
7,SimB2,6,4.5,2.6,3.6,3.5,3.5,3.6,1,1,16.37
7,AttR2,7,2.6,4.4,4.7,2.3,4.7,1.7,3,2,14.478
7,Com1,8,7.4,3.8,5.4,5.8,4.3,6.9,1,2,5.505
7,AttR2,8,2.2,4.8,4.5,2.5,4.5,1.9,2,2,10.862
7,SimB2,9,4.3,2.7,3.4,3.6,3.2,3.8,3,3,10.383
7,Com2,10,5.3,5.8,4.2,6.9,3.3,7.8,2,1,8.96
7,AttR2,10,2.3,4.8,4.5,2.6,4.5,1.9,2,1,10.544
7,SimA2,10,2.4,4.6,3.5,3.5,3.7,3.3,3,2,11.087
7,SimA1,11,2.4,4.7,3.5,3.6,2.2,4.9,3,2,3.519
7,AttR1,12,2.6,4.6,4.8,2.4,1.9,4.6,1,2,27.805
7,SimA2,12,2.7,4.4,3.6,3.5,3.8,3.3,1,2,3.806
7,Com1,13,7.1,3.9,5.2,5.8,4.1,6.9,3,2,4.914
7,SimA2,13,2.5,4.3,3.4,3.4,3.6,3.2,1,2,9.68
7,Com2,14,5.4,5.8,4.5,6.7,3.3,7.9,3,1,3.65
7,AttR2,14,2.2,4.8,4.5,2.5,4.5,1.9,2,1,12.031
7,AttR1,15,2.6,4.6,4.8,2.4,1.9,4.6,2,2,8.831
7,Com1,16,7.4,3.7,5.4,5.7,4.4,6.7,1,2,5.2
7,AttR2,16,2.3,4.6,4.4,2.5,4.4,1.8,2,1,4.865
7,SimA2,16,2.4,4.7,3.5,3.6,3.7,3.4,1,1,9.808
7,Com2,18,5.3,5.8,4.4,6.7,3.2,7.9,2,1,7.442
7,Com2,19,5.3,5.7,4.3,6.7,3.3,7.7,2,1,2.834
7,SimA2,19,2.7,4.5,3.6,3.6,3.8,3.4,2,2,10.863
7,Com2,20,5.3,5.6,4.4,6.5,3.3,7.6,2,1,5.859
7,SimB1,20,4.5,2.5,3.5,3.5,4.7,2.3,2,2,5.57
7,SimB2,21,4.6,2.7,3.6,3.7,3.5,3.8,1,3,11.406
7,AttR2,23,2.6,4.6,4.8,2.4,4.8,1.7,2,2,16.607
7,SimA1,23,2.7,4.5,3.6,3.6,2.5,4.7,1,2,16.305
7,AttR2,24,2.2,4.6,4.4,2.4,4.4,1.6,2,1,7.456
7,SimB1,24,4.5,2.6,3.6,3.5,4.6,2.5,2,2,9.375
7,AttR1,25,2.3,4.6,4.4,2.5,1.5,4.6,2,2,8.062
7,SimA1,25,2.4,4.6,3.5,3.5,2.2,4.8,2,2,7.199
7,Com1,27,7.4,3.6,5.3,5.7,4.3,6.7,2,2,11.264
7,AttR2,27,2.5,4.5,4.8,2.2,4.8,1.4,2,1,17.454
7,Com2,28,5.2,5.8,4.1,6.9,3.1,7.9,2,1,3.92
7,SimB2,28,4.3,2.5,3.4,3.4,3.3,3.5,3,1,12.703
7,SimA1,29,2.7,4.4,3.6,3.5,2.5,4.6,2,1,17.504
7,Com2,30,5.3,5.7,4.4,6.6,3.4,7.6,1,1,3.105
7,AttR1,31,2.3,4.6,4.5,2.4,1.7,4.6,3,1,10.958
7,SimA1,31,2.6,4.7,3.6,3.7,2.5,4.8,1,2,9.903
7,AttR1,32,2.5,4.5,4.4,2.6,1.8,4.5,3,1,9.153
7,SimA1,32,2.7,4.5,3.6,3.6,2.6,4.6,2,2,11.023
7,AttR1,33,2.5,4.5,4.7,2.3,1.8,4.5,1,2,8.766
7,AttR1,34,2.5,4.4,4.5,2.4,1.8,4.4,1,1,21.522
7,AttR2,35,2.0,4.6,4.3,2.3,4.3,1.6,2,1,9.631
7,SimA2,35,2.5,4.5,3.5,3.5,3.6,3.4,1,2,3.378
7,AttR2,36,2.5,4.5,4.4,2.6,4.4,2.0,2,1,12.402
7,Com1,37,7.4,3.5,5.3,5.6,4.4,6.5,1,2,7.952
7,SimB1,37,4.3,2.5,3.4,3.4,4.4,2.4,2,2,7.746
7,Com2,38,5.3,5.8,4.3,6.8,3.2,7.9,1,1,4.558
7,SimA1,38,2.6,4.4,3.5,3.5,2.5,4.5,1,2,7.934
7,SimB1,39,4.4,2.6,3.5,3.5,4.5,2.5,2,3,7.405
7,SimA1,40,2.5,4.5,3.5,3.5,2.4,4.6,2,2,5.601
7,Com1,41,7.3,3.5,5.2,5.6,4.1,6.7,2,2,4.945
7,Com1,43,7.4,3.5,5.3,5.6,4.3,6.6,3,2,7.215
7,AttR1,43,2.5,4.6,4.4,2.7,1.9,4.6,1,1,17.154
7,SimB1,43,4.3,2.7,3.4,3.6,4.4,2.6,1,2,6.398
7,SimB1,44,4.5,2.5,3.5,3.5,4.6,2.4,2,2,2.065
7,Com2,45,5.2,5.6,4.1,6.7,3.3,7.5,3,1,2.499
7,SimA2,45,2.7,4.5,3.6,3.6,3.8,3.4,3,2,2.769
7,Com1,46,7.3,3.6,5.3,5.6,4.4,6.5,2,2,3.232
7,AttR2,46,2.5,4.5,4.6,2.4,4.6,1.8,2,1,14.399
7,AttR1,48,2.2,4.8,4.5,2.5,1.5,4.8,1,1,13.456
7,AttR1,49,2.3,4.8,4.5,2.6,1.6,4.8,1,2,20.814
7,SimA1,49,2.4,4.6,3.4,3.6,2.2,4.8,2,2,7.76
7,AttR1,50,2.2,4.8,4.5,2.5,1.6,4.8,1,1,10.849
7,AttR2,51,2.5,4.5,4.7,2.3,4.7,1.6,3,1,10.112
7,SimB2,51,4.4,2.7,3.5,3.6,3.4,3.7,1,2,1.293
7,Com1,53,7.3,3.7,5.3,5.7,4.2,6.8,1,2,10.99
7,AttR1,53,2.5,4.5,4.8,2.2,1.9,4.5,1,1,9.345
7,SimA2,53,2.6,4.4,3.5,3.5,3.7,3.3,1,2,5.391
7,Com1,54,7.3,3.8,5.3,5.8,4.3,6.8,3,2,6.207
7,Com2,55,5.4,5.7,4.4,6.7,3.5,7.6,1,1,2.61
7,Com1,56,7.4,3.6,5.3,5.7,4.4,6.6,1,2,2.718
7,AttR2,56,2.3,4.6,4.5,2.4,4.5,1.7,3,1,11.342
7,SimB1,56,4.6,2.7,3.6,3.7,4.7,2.6,2,2,10.431
7,Com2,57,5.4,5.6,4.5,6.5,3.4,7.6,1,1,2.498
7,SimB2,57,4.4,2.6,3.5,3.5,3.4,3.6,3,2,4.641
7,Com1,58,7.3,3.6,5.3,5.6,4.2,6.7,3,2,3.039
7,SimA2,58,2.6,4.7,3.6,3.7,3.8,3.5,2,2,6.8
7,Com1,59,7.3,3.6,5.2,5.7,4.1,6.8,1,2,2.64
7,AttR1,59,2.0,4.6,4.3,2.3,1.4,4.6,3,2,7.089
7,AttR2,60,2.4,4.4,4.7,2.1,4.7,1.3,2,2,10.318
7,AttR2,61,2.5,4.4,4.5,2.4,4.5,1.6,3,1,10.542
7,SimB2,61,4.6,2.6,3.6,3.6,3.5,3.7,2,2,4.016
7,Com2,62,5.3,5.6,4.4,6.5,3.2,7.7,1,1,4.337
7,Com2,63,5.4,5.8,4.3,6.9,3.5,7.7,1,1,2.528
7,AttR2,63,2.5,4.6,4.4,2.7,4.4,2.1,2,1,13.824
7,SimB2,64,4.5,2.5,3.5,3.5,3.4,3.6,1,2,5.088
7,Com2,65,5.4,5.6,4.4,6.6,3.5,7.5,3,1,15.859
7,SimB1,65,4.6,2.6,3.6,3.6,4.8,2.4,3,2,6.003
7,AttR2,66,2.6,4.6,4.8,2.4,4.8,1.8,1,1,8.654
7,SimA1,66,2.5,4.3,3.4,3.4,2.4,4.4,3,2,9.184
7,Com2,67,5.3,5.8,4.3,6.8,3.4,7.7,3,1,4.896
7,AttR1,67,2.6,4.4,4.7,2.3,2.0,4.4,2,2,14.958
7,AttR1,68,2.4,4.7,4.6,2.5,1.6,4.7,2,2,11.007
7,Com1,69,7.4,3.7,5.3,5.8,4.3,6.8,1,2,3.117
7,AttR1,70,2.2,4.6,4.4,2.4,1.4,4.6,3,1,17.793
7,AttR1,71,2.5,4.5,4.6,2.4,1.9,4.5,3,2,6.497
7,Com2,72,5.3,5.6,4.2,6.7,3.4,7.5,2,1,3.025
7,AttR1,72,1.9,4.9,4.8,2.0,1.2,4.9,1,1,8.527
7,Com1,73,7.3,3.9,5.4,5.8,4.5,6.7,3,2,10.831
7,SimB2,73,4.5,2.5,3.5,3.5,3.3,3.7,3,2,10.002
7,Com1,74,7.4,3.6,5.4,5.6,4.4,6.6,3,2,2.93
7,SimA2,74,2.4,4.6,3.4,3.6,3.6,3.4,3,3,6.174
7,Com2,75,5.2,5.6,4.3,6.5,3.1,7.7,1,1,11.423
7,Com1,76,7.4,3.6,5.4,5.6,4.5,6.5,1,2,2.371
7,Com2,77,5.3,5.6,4.3,6.6,3.3,7.6,3,1,3.73
7,AttR1,77,2.6,4.5,4.6,2.5,1.9,4.5,1,1,10.24
7,SimB1,77,4.4,2.7,3.5,3.6,4.5,2.6,2,1,4.527
7,Com1,80,7.4,3.7,5.3,5.8,4.2,6.9,2,2,6.289
7,AttR2,80,2.4,4.7,4.6,2.5,4.6,1.7,2,2,11.506
8,AttR2,1,2.2,4.8,4.5,2.5,4.5,1.9,3,3,10.726
8,SimA2,1,2.4,4.6,3.5,3.5,3.7,3.3,2,1,5.943
8,SimB1,2,4.3,2.5,3.4,3.4,4.4,2.4,2,3,3.666
8,Com1,4,7.1,3.9,5.2,5.8,4.1,6.9,1,1,10.405
8,AttR2,4,2.6,4.6,4.8,2.4,4.8,1.8,3,3,3.167
8,SimA1,4,2.6,4.7,3.6,3.7,2.5,4.8,2,3,7.47
8,Com2,6,5.3,5.7,4.3,6.7,3.3,7.7,1,3,10.978
8,AttR2,6,2.5,4.6,4.4,2.7,4.4,2.1,2,3,3.839
8,SimA1,6,2.7,4.4,3.6,3.5,2.5,4.6,3,1,4.303
8,SimB1,7,4.3,2.7,3.4,3.6,4.4,2.6,2,3,5.644
8,Com2,8,5.3,5.7,4.4,6.6,3.4,7.6,1,3,5.218
8,AttR1,8,1.9,4.9,4.8,2.0,1.2,4.9,3,3,5.651
8,Com2,9,5.3,5.7,4.2,6.8,3.3,7.7,2,3,7.216
8,AttR2,9,2.4,4.7,4.6,2.5,4.6,1.7,3,3,6.254
8,AttR1,10,2.5,4.6,4.4,2.7,1.9,4.6,3,3,7.169
8,Com1,11,7.4,3.8,5.4,5.8,4.3,6.9,3,1,4.673
8,AttR1,11,2.2,4.6,4.4,2.4,1.4,4.6,2,3,6.767
8,SimA2,11,2.4,4.7,3.5,3.6,3.7,3.4,1,1,5.825
8,Com1,12,7.4,3.6,5.3,5.7,4.4,6.6,1,1,4.387
8,AttR1,12,2.6,4.6,4.8,2.4,1.9,4.6,2,2,11.775
8,SimB1,12,4.6,2.6,3.6,3.6,4.8,2.4,1,3,3.439
8,Com2,13,5.2,5.6,4.1,6.7,3.3,7.5,3,2,6.403
8,AttR1,13,2.5,4.4,4.5,2.4,1.8,4.4,1,1,5.456
8,SimA1,14,2.4,4.7,3.5,3.6,2.2,4.9,3,3,6.913
8,Com1,15,7.4,3.7,5.3,5.8,4.2,6.9,2,1,2.354
8,SimB1,15,4.4,2.6,3.5,3.5,4.5,2.5,2,3,6.801
8,Com1,17,7.3,3.6,5.2,5.7,4.1,6.8,3,1,2.243
8,SimA2,17,2.6,4.4,3.5,3.5,3.7,3.3,2,1,7.664
8,Com2,19,5.4,5.7,4.4,6.7,3.5,7.6,3,3,4.563
8,AttR2,19,2.3,4.8,4.5,2.6,4.5,1.9,3,3,12.912
8,SimB2,20,4.5,2.5,3.5,3.5,3.4,3.6,2,1,4.081
8,SimA2,21,2.6,4.7,3.6,3.7,3.8,3.5,1,1,4.88
8,Com2,22,5.2,5.6,4.3,6.5,3.1,7.7,2,3,6.818
8,Com2,23,5.3,5.6,4.4,6.5,3.2,7.7,3,3,8.675
8,SimA2,23,2.7,4.5,3.6,3.6,3.8,3.4,2,1,3.487
8,Com1,24,7.3,3.6,5.3,5.6,4.4,6.5,2,1,3.65
8,AttR1,24,2.4,4.4,4.7,2.1,1.7,4.4,3,3,4.465
8,SimA2,24,2.4,4.6,3.4,3.6,3.6,3.4,3,1,3.906
8,AttR1,25,2.6,4.5,4.6,2.5,1.9,4.5,1,3,3.117
8,Com2,26,5.4,5.6,4.4,6.6,3.5,7.5,3,3,3.489
8,Com1,27,7.3,3.6,5.3,5.6,4.2,6.7,3,1,3.746
8,AttR2,27,2.4,4.4,4.7,2.1,4.7,1.3,3,3,6.067
8,Com2,28,5.3,5.8,4.3,6.8,3.2,7.9,3,3,5.374
8,SimB2,28,4.6,2.6,3.6,3.6,3.5,3.7,1,1,3.698
8,Com1,29,7.2,3.9,5.3,5.8,4.4,6.7,1,1,3.009
8,SimB2,29,4.3,2.5,3.4,3.4,3.3,3.5,3,1,2.898
8,AttR1,30,2.2,4.8,4.5,2.5,1.6,4.8,1,3,5.825
8,Com2,31,5.4,5.8,4.5,6.7,3.3,7.9,1,3,3.502
8,SimA1,31,2.7,4.5,3.6,3.6,2.6,4.6,1,3,7.52
8,Com2,32,5.2,5.7,4.1,6.8,3.2,7.7,3,3,2.928
8,AttR1,32,2.3,4.6,4.5,2.4,1.7,4.6,2,3,5.233
8,SimA1,32,2.5,4.3,3.4,3.4,2.4,4.4,3,1,6.783
8,SimA1,33,2.4,4.6,3.5,3.5,2.2,4.8,2,3,8.224
8,AttR2,34,2.6,4.4,4.7,2.3,4.7,1.7,3,3,11.951
8,SimA2,34,2.5,4.5,3.5,3.5,3.6,3.4,3,1,3.664
8,Com1,35,7.4,3.5,5.3,5.6,4.4,6.5,3,1,2.654
8,Com1,36,7.4,3.6,5.4,5.6,4.4,6.6,2,1,3.553
8,SimA1,36,2.6,4.4,3.5,3.5,2.5,4.5,2,3,15.008
8,AttR1,37,2.5,4.5,4.6,2.4,1.9,4.5,1,3,3.119
8,SimA2,37,2.5,4.3,3.4,3.4,3.6,3.2,3,1,5.601
8,Com1,38,7.3,3.9,5.4,5.8,4.5,6.7,1,1,7.376
8,SimB2,38,4.4,2.7,3.5,3.6,3.4,3.7,2,1,4.383
8,AttR2,39,2.3,4.6,4.4,2.5,4.4,1.8,1,3,4.27
8,SimB1,39,4.4,2.7,3.5,3.6,4.5,2.6,2,3,6.048
8,Com2,40,5.4,5.6,4.5,6.5,3.4,7.6,3,3,2.338
8,AttR2,40,2.2,4.8,4.5,2.5,4.5,1.9,3,1,6.771
8,SimA2,40,2.7,4.4,3.6,3.5,3.8,3.3,3,1,4.894
8,Com2,41,5.3,5.8,4.4,6.7,3.2,7.9,1,3,2.32
8,AttR1,41,2.2,4.8,4.5,2.5,1.5,4.8,1,3,5.566
8,Com2,43,5.3,5.8,4.3,6.8,3.4,7.7,2,3,3.25
8,AttR1,43,2.5,4.5,4.7,2.3,1.8,4.5,1,3,7.199
8,SimA1,43,2.7,4.5,3.6,3.6,2.5,4.7,1,3,4.781
8,SimA1,44,2.4,4.6,3.4,3.6,2.2,4.8,3,3,4.352
8,Com1,45,7.4,3.7,5.4,5.7,4.4,6.7,1,3,3.954
8,Com1,46,7.4,3.6,5.4,5.6,4.5,6.5,1,1,2.93
8,Com2,47,5.2,5.8,4.1,6.9,3.1,7.9,1,3,3.726
8,Com2,48,5.4,5.8,4.3,6.9,3.5,7.7,1,3,1.904
8,Com1,51,7.4,3.6,5.3,5.7,4.3,6.7,2,1,2.832
8,AttR1,51,2.6,4.4,4.7,2.3,2.0,4.4,3,3,3.793
8,SimB1,51,4.6,2.7,3.6,3.7,4.7,2.6,1,3,7.697
8,AttR1,52,2.0,4.6,4.3,2.3,1.4,4.6,2,3,4.414
8,Com1,53,7.4,3.5,5.3,5.6,4.3,6.6,2,1,3.6
8,AttR2,53,2.5,4.5,4.7,2.3,4.7,1.6,2,3,4.592
8,Com1,55,7.4,3.7,5.3,5.8,4.3,6.8,2,1,4.335
8,SimA1,55,2.5,4.5,3.5,3.5,2.4,4.6,3,1,7.184
8,Com2,56,5.3,5.8,4.2,6.9,3.3,7.8,1,3,8.608
8,AttR1,56,2.5,4.5,4.8,2.2,1.9,4.5,3,3,3.533
8,AttR2,57,2.6,4.6,4.8,2.4,4.8,1.7,1,3,3.73
8,Com1,58,7.3,3.8,5.3,5.8,4.3,6.8,1,1,2.576
8,AttR2,58,2.0,4.6,4.3,2.3,4.3,1.6,3,1,4.511
8,SimB2,59,4.3,2.7,3.4,3.6,3.2,3.8,2,1,4.209
8,Com2,60,5.3,5.6,4.4,6.5,3.3,7.6,2,3,4.047
8,SimB2,60,4.4,2.6,3.5,3.5,3.4,3.6,2,1,7.678
8,AttR2,61,2.5,4.5,4.6,2.4,4.6,1.8,3,3,4.562
8,SimB1,61,4.5,2.5,3.5,3.5,4.7,2.3,2,3,8.399
8,AttR2,62,2.3,4.6,4.5,2.4,4.5,1.7,3,3,5.07
8,AttR2,63,2.5,4.5,4.4,2.6,4.4,2.0,3,3,5.662
8,SimB1,63,4.5,2.6,3.6,3.5,4.6,2.5,1,1,14.43
8,SimA2,64,2.7,4.5,3.6,3.6,3.8,3.4,1,1,3.698
8,Com2,65,5.3,5.6,4.2,6.7,3.4,7.5,2,3,3.968
8,Com2,66,5.3,5.6,4.3,6.6,3.3,7.6,3,3,3.198
8,SimB1,66,4.6,2.6,3.6,3.6,4.8,2.4,3,3,10.913
8,AttR2,67,1.9,4.9,4.8,2.0,4.8,1.4,1,3,6.098
8,SimB2,67,4.6,2.6,3.6,3.6,3.5,3.7,2,1,4.306
8,AttR1,68,2.4,4.7,4.6,2.5,1.6,4.7,1,3,6.238
8,SimB1,68,4.5,2.5,3.5,3.5,4.6,2.4,1,3,4.43
8,AttR2,69,2.5,4.4,4.5,2.4,4.5,1.6,1,3,4.018
8,AttR1,71,2.6,4.6,4.8,2.4,1.9,4.6,2,3,5.698
8,Com1,72,7.3,3.5,5.2,5.6,4.1,6.7,2,1,2.272
8,Com1,73,7.3,3.5,5.2,5.6,4.3,6.5,3,1,2.561
8,AttR2,73,2.2,4.6,4.4,2.4,4.4,1.6,2,3,5.245
8,SimB2,73,4.5,2.5,3.5,3.5,3.3,3.7,1,1,9.328
8,Com1,74,7.3,3.7,5.3,5.7,4.2,6.8,2,1,2.832
8,AttR2,74,2.5,4.5,4.8,2.2,4.8,1.4,2,3,7.103
8,SimB2,74,4.6,2.7,3.6,3.7,3.5,3.8,1,1,4.063
8,AttR2,75,2.6,4.5,4.6,2.5,4.6,1.9,1,3,3.217
8,SimB2,76,4.5,2.6,3.6,3.5,3.5,3.6,2,1,5.97
8,AttR1,77,2.3,4.6,4.4,2.5,1.5,4.6,1,3,5.298
8,AttR1,79,2.5,4.5,4.4,2.6,1.8,4.5,2,3,5.55
8,AttR1,80,2.3,4.8,4.5,2.6,1.6,4.8,1,3,4.898
9,AttR2,2,2.6,4.6,4.8,2.4,4.8,1.8,2,1,5.28
9,SimA2,3,2.7,4.5,3.6,3.6,3.8,3.4,2,2,36.928
9,Com2,4,5.3,5.6,4.4,6.5,3.2,7.7,2,1,11.922
9,AttR2,4,2.2,4.8,4.5,2.5,4.5,1.9,2,3,3.935
9,SimB2,7,4.3,2.5,3.4,3.4,3.3,3.5,1,2,15.039
9,AttR1,7,2.6,4.5,4.6,2.5,1.9,4.5,1,3,10.623
9,AttR2,8,2.5,4.5,4.4,2.6,4.4,2.0,2,2,6.017
9,SimA2,9,2.4,4.7,3.5,3.6,3.7,3.4,3,2,15.585
9,SimB2,10,4.6,2.6,3.6,3.6,3.5,3.7,2,2,18.784
9,AttR1,10,2.2,4.6,4.4,2.4,1.4,4.6,1,1,3.234
9,Com2,11,5.4,5.6,4.4,6.6,3.5,7.5,3,1,4.114
9,SimA2,11,2.7,4.5,3.6,3.6,3.8,3.4,2,2,28.703
9,AttR2,11,2.4,4.7,4.6,2.5,4.6,1.7,2,1,3.376
9,Com2,12,5.3,5.7,4.3,6.7,3.3,7.7,2,1,3.219
9,AttR1,12,2.6,4.6,4.8,2.4,1.9,4.6,1,1,5.01
9,SimA2,13,2.4,4.6,3.5,3.5,3.7,3.3,2,2,12.573
9,AttR1,13,2.0,4.6,4.3,2.3,1.4,4.6,1,1,2.8
9,Com2,15,5.3,5.8,4.4,6.7,3.2,7.9,3,1,6.627
9,AttR1,15,2.5,4.4,4.5,2.4,1.8,4.4,2,3,10.606
9,Com2,16,5.3,5.8,4.3,6.8,3.2,7.9,2,1,2.386
9,SimA1,16,2.5,4.3,3.4,3.4,2.4,4.4,1,2,22.45
9,SimB2,17,4.5,2.5,3.5,3.5,3.3,3.7,1,2,2.881
9,AttR2,17,2.5,4.6,4.4,2.7,4.4,2.1,1,1,3.25
9,AttR2,19,2.5,4.4,4.5,2.4,4.5,1.6,3,1,4.079
9,SimA1,20,2.7,4.5,3.6,3.6,2.5,4.7,1,2,3.422
9,Com1,22,7.3,3.6,5.3,5.6,4.4,6.5,1,2,3.778
9,SimA2,22,2.5,4.3,3.4,3.4,3.6,3.2,1,2,53.985
9,AttR1,22,2.6,4.4,4.7,2.3,2.0,4.4,3,2,2.943
9,Com2,23,5.2,5.7,4.1,6.8,3.2,7.7,3,1,2.372
9,SimA2,23,2.4,4.6,3.4,3.6,3.6,3.4,3,1,18.177
9,AttR2,23,2.4,4.4,4.7,2.1,4.7,1.3,1,1,2.527
9,SimA2,24,2.7,4.4,3.6,3.5,3.8,3.3,2,2,23.666
9,AttR2,24,2.0,4.6,4.3,2.3,4.3,1.6,1,1,2.813
9,Com1,25,7.2,3.9,5.3,5.8,4.4,6.7,3,2,3.44
9,AttR1,25,2.2,4.8,4.5,2.5,1.6,4.8,2,2,4.16
9,Com1,26,7.4,3.5,5.3,5.6,4.4,6.5,1,2,2.254
9,AttR2,26,2.6,4.4,4.7,2.3,4.7,1.7,2,1,4.894
9,AttR2,27,1.9,4.9,4.8,2.0,4.8,1.4,3,1,3.329
9,AttR2,28,2.2,4.8,4.5,2.5,4.5,1.9,1,1,4.689
9,Com1,29,7.4,3.7,5.3,5.8,4.3,6.8,1,2,5.39
9,Com1,30,7.4,3.7,5.3,5.8,4.2,6.9,3,2,2.113
9,Com1,31,7.3,3.6,5.2,5.7,4.1,6.8,3,2,3.024
9,AttR1,31,2.4,4.4,4.7,2.1,1.7,4.4,2,2,4.32
9,Com2,32,5.3,5.6,4.4,6.5,3.3,7.6,1,1,2.525
9,Com1,33,7.3,3.7,5.3,5.7,4.2,6.8,1,2,2.162
9,AttR2,33,2.3,4.6,4.4,2.5,4.4,1.8,1,1,2.05
9,SimA1,34,2.5,4.5,3.5,3.5,2.4,4.6,3,2,27.202
9,Com1,35,7.4,3.6,5.4,5.6,4.4,6.6,3,2,4.431
9,AttR1,35,2.6,4.6,4.8,2.4,1.9,4.6,3,3,4.384
9,Com1,36,7.3,3.8,5.3,5.8,4.3,6.8,1,2,3.648
9,SimB2,37,4.5,2.5,3.5,3.5,3.4,3.6,3,2,1.939
9,Com1,38,7.3,3.6,5.3,5.6,4.2,6.7,2,2,4.881
9,SimA2,38,2.6,4.4,3.5,3.5,3.7,3.3,3,2,1.521
9,Com1,39,7.3,3.9,5.4,5.8,4.5,6.7,2,2,1.566
9,SimB1,39,4.4,2.6,3.5,3.5,4.5,2.5,3,2,1.424
9,AttR1,39,2.2,4.8,4.5,2.5,1.5,4.8,2,2,4.991
9,SimB1,40,4.6,2.7,3.6,3.7,4.7,2.6,2,2,11.367
9,Com2,41,5.3,5.7,4.2,6.8,3.3,7.7,1,1,5.502
9,AttR2,41,2.6,4.6,4.8,2.4,4.8,1.7,3,1,1.953
9,SimA1,42,2.7,4.5,3.6,3.6,2.6,4.6,2,2,4.031
9,AttR2,42,2.2,4.6,4.4,2.4,4.4,1.6,2,1,3.006
9,Com1,43,7.4,3.6,5.3,5.7,4.3,6.7,2,2,1.839
9,AttR1,43,2.4,4.7,4.6,2.5,1.6,4.7,3,2,1.793
9,Com2,44,5.4,5.8,4.3,6.9,3.5,7.7,2,1,1.411
9,SimA1,44,2.4,4.6,3.5,3.5,2.2,4.8,1,2,16.384
9,Com1,45,7.4,3.7,5.4,5.7,4.4,6.7,3,2,7.974
9,AttR2,45,2.5,4.5,4.7,2.3,4.7,1.6,1,1,2.173
9,SimA1,46,2.6,4.7,3.6,3.7,2.5,4.8,1,2,29.119
9,Com2,47,5.4,5.8,4.5,6.7,3.3,7.9,1,1,2.415
9,SimA1,47,2.7,4.4,3.6,3.5,2.5,4.6,2,2,14.814
9,Com1,48,7.4,3.5,5.3,5.6,4.3,6.6,2,2,2.622
9,AttR1,49,1.9,4.9,4.8,2.0,1.2,4.9,2,2,3.152
9,Com2,50,5.2,5.8,4.1,6.9,3.1,7.9,2,3,2.511
9,AttR1,50,2.5,4.5,4.7,2.3,1.8,4.5,1,2,2.527
9,Com2,51,5.3,5.6,4.2,6.7,3.4,7.5,3,1,1.521
9,SimB1,52,4.6,2.6,3.6,3.6,4.8,2.4,2,2,19.889
9,AttR1,52,2.5,4.5,4.6,2.4,1.9,4.5,2,2,3.25
9,Com1,53,7.4,3.6,5.3,5.7,4.4,6.6,2,2,5.23
9,SimA1,53,2.6,4.4,3.5,3.5,2.5,4.5,2,2,10.863
9,SimA2,54,2.5,4.5,3.5,3.5,3.6,3.4,3,3,3.118
9,SimB2,56,4.5,2.6,3.6,3.5,3.5,3.6,1,3,21.902
9,Com2,57,5.3,5.8,4.2,6.9,3.3,7.8,3,1,4.079
9,Com2,58,5.4,5.7,4.4,6.7,3.5,7.6,1,1,3.057
9,SimA1,58,2.4,4.6,3.4,3.6,2.2,4.8,1,2,31.07
9,AttR2,59,2.5,4.5,4.6,2.4,4.6,1.8,2,1,1.839
9,Com1,60,7.4,3.6,5.4,5.6,4.5,6.5,2,2,5.235
9,SimB2,60,4.6,2.7,3.6,3.7,3.5,3.8,1,3,5.934
9,AttR1,61,2.5,4.5,4.8,2.2,1.9,4.5,2,2,2.415
9,Com2,62,5.3,5.8,4.3,6.8,3.4,7.7,3,1,4.017
9,SimB2,63,4.6,2.6,3.6,3.6,3.5,3.7,3,3,2.735
9,AttR2,63,2.3,4.8,4.5,2.6,4.5,1.9,1,1,2.611
9,SimB1,64,4.5,2.5,3.5,3.5,4.6,2.4,2,3,4.271
9,AttR1,64,2.3,4.6,4.4,2.5,1.5,4.6,1,2,2.159
9,Com1,65,7.1,3.9,5.2,5.8,4.1,6.9,2,2,25.214
9,SimB1,65,4.6,2.6,3.6,3.6,4.8,2.4,2,3,1.888
9,AttR1,65,2.5,4.5,4.4,2.6,1.8,4.5,2,2,2.063
9,AttR1,66,2.3,4.6,4.5,2.4,1.7,4.6,3,2,1.456
9,Com2,67,5.2,5.6,4.3,6.5,3.1,7.7,2,1,9.84
9,Com2,68,5.3,5.6,4.3,6.6,3.3,7.6,2,1,10.575
9,SimB2,68,4.4,2.7,3.5,3.6,3.4,3.7,1,2,12.751
9,SimB1,69,4.5,2.6,3.6,3.5,4.6,2.5,2,2,18.88
9,SimA2,70,2.6,4.7,3.6,3.7,3.8,3.5,1,2,16.896
9,AttR2,70,2.3,4.6,4.5,2.4,4.5,1.7,2,1,3.967
9,Com2,72,5.3,5.7,4.4,6.6,3.4,7.6,2,1,3.968
9,SimA1,72,2.4,4.7,3.5,3.6,2.2,4.9,1,2,2.608
9,AttR1,73,2.3,4.8,4.5,2.6,1.6,4.8,2,2,5.57
9,Com1,75,7.3,3.5,5.2,5.6,4.1,6.7,2,2,2.784
9,SimB1,75,4.4,2.7,3.5,3.6,4.5,2.6,3,3,1.565
9,AttR2,75,2.5,4.5,4.8,2.2,4.8,1.4,3,1,4.206
9,Com2,76,5.2,5.6,4.1,6.7,3.3,7.5,2,1,1.474
9,SimB2,76,4.4,2.6,3.5,3.5,3.4,3.6,2,2,1.617
9,AttR1,76,2.5,4.6,4.4,2.7,1.9,4.6,3,2,4.321
9,Com1,77,7.4,3.8,5.4,5.8,4.3,6.9,3,1,40.551
9,SimB2,77,4.3,2.7,3.4,3.6,3.2,3.8,2,2,4.318
9,SimB1,78,4.5,2.5,3.5,3.5,4.7,2.3,3,2,3.217
9,AttR2,78,2.6,4.5,4.6,2.5,4.6,1.9,1,1,4.335
9,Com1,79,7.3,3.5,5.2,5.6,4.3,6.5,2,2,19.695
9,SimB1,79,4.3,2.5,3.4,3.4,4.4,2.4,3,2,2.719
9,Com2,80,5.4,5.6,4.5,6.5,3.4,7.6,2,1,24.976
9,SimB1,80,4.3,2.7,3.4,3.6,4.4,2.6,3,2,3.168
10,Com2,2,5.2,5.7,4.1,6.8,3.2,7.7,2,3,5.744
10,Com2,3,5.3,5.6,4.2,6.7,3.4,7.5,3,3,2.192
10,SimA2,4,2.6,4.7,3.6,3.7,3.8,3.5,3,3,92.836
10,AttR1,4,2.3,4.8,4.5,2.6,1.6,4.8,1,1,6.08
10,Com1,4,7.4,3.8,5.4,5.8,4.3,6.9,2,3,2.846
10,SimB1,5,4.3,2.7,3.4,3.6,4.4,2.6,2,2,13.505
10,SimB1,7,4.4,2.7,3.5,3.6,4.5,2.6,1,2,4.069
10,SimA1,8,2.4,4.6,3.4,3.6,2.2,4.8,2,2,7.027
10,Com2,8,5.3,5.6,4.4,6.5,3.3,7.6,3,3,7.488
10,SimB2,9,4.4,2.6,3.5,3.5,3.4,3.6,2,3,41.185
10,AttR2,9,2.5,4.5,4.8,2.2,4.8,1.4,1,1,7.838
10,Com2,9,5.4,5.7,4.4,6.7,3.5,7.6,3,2,6.497
10,Com2,10,5.2,5.6,4.1,6.7,3.3,7.5,2,1,8.562
10,AttR2,11,2.3,4.6,4.5,2.4,4.5,1.7,1,2,12.095
10,Com1,11,7.1,3.9,5.2,5.8,4.1,6.9,2,1,2.43
10,SimB1,12,4.4,2.6,3.5,3.5,4.5,2.5,3,2,3.011
10,AttR1,12,2.5,4.5,4.4,2.6,1.8,4.5,2,3,10.048
10,Com2,13,5.3,5.8,4.3,6.8,3.2,7.9,1,3,8.499
10,AttR1,15,2.6,4.6,4.8,2.4,1.9,4.6,1,2,5.604
10,Com1,15,7.2,3.9,5.3,5.8,4.4,6.7,1,3,5.745
10,AttR1,16,2.2,4.8,4.5,2.5,1.5,4.8,2,2,12.349
10,Com1,16,7.4,3.7,5.3,5.8,4.2,6.9,1,3,3.824
10,SimB1,17,4.6,2.6,3.6,3.6,4.8,2.4,1,2,1.475
10,AttR1,17,2.5,4.6,4.4,2.7,1.9,4.6,2,2,6.417
10,Com2,17,5.3,5.7,4.3,6.7,3.3,7.7,2,2,4.689
10,SimB1,18,4.5,2.5,3.5,3.5,4.7,2.3,2,2,8.421
10,SimA2,19,2.4,4.6,3.5,3.5,3.7,3.3,1,2,28.963
10,AttR2,19,2.5,4.5,4.7,2.3,4.7,1.6,2,1,13.167
10,AttR1,20,2.6,4.6,4.8,2.4,1.9,4.6,1,2,4.258
10,SimA1,21,2.7,4.5,3.6,3.6,2.6,4.6,3,2,27.475
10,AttR1,21,2.2,4.8,4.5,2.5,1.6,4.8,1,2,3.695
10,SimA2,22,2.7,4.4,3.6,3.5,3.8,3.3,3,3,34.417
10,Com1,22,7.3,3.7,5.3,5.7,4.2,6.8,2,3,5.727
10,SimA1,23,2.5,4.3,3.4,3.4,2.4,4.4,1,3,53.412
10,AttR2,23,1.9,4.9,4.8,2.0,4.8,1.4,3,2,8.303
10,Com1,23,7.3,3.6,5.3,5.6,4.2,6.7,3,3,4.914
10,AttR1,24,2.2,4.6,4.4,2.4,1.4,4.6,2,1,32.351
10,Com2,25,5.4,5.8,4.5,6.7,3.3,7.9,3,2,9.792
10,SimB2,26,4.5,2.6,3.6,3.5,3.5,3.6,1,1,88.096
10,AttR2,26,2.5,4.5,4.4,2.6,4.4,2.0,1,2,13.697
10,Com1,26,7.4,3.6,5.4,5.6,4.5,6.5,2,3,9.2
10,AttR1,27,2.4,4.4,4.7,2.1,1.7,4.4,3,2,22.864
10,Com2,27,5.3,5.6,4.3,6.6,3.3,7.6,3,1,3.55
10,SimA2,28,2.5,4.3,3.4,3.4,3.6,3.2,1,3,18.577
10,AttR1,28,2.0,4.6,4.3,2.3,1.4,4.6,3,2,17.952
10,SimB1,29,4.6,2.7,3.6,3.7,4.7,2.6,2,1,50.029
10,SimB2,30,4.3,2.7,3.4,3.6,3.2,3.8,2,3,50.657
10,AttR1,30,2.3,4.6,4.5,2.4,1.7,4.6,1,2,3.537
10,SimB2,31,4.4,2.7,3.5,3.6,3.4,3.7,1,1,67.392
10,Com2,31,5.3,5.7,4.4,6.6,3.4,7.6,3,2,5.519
10,SimA1,32,2.7,4.4,3.6,3.5,2.5,4.6,1,2,12.271
10,AttR1,32,2.5,4.4,4.5,2.4,1.8,4.4,3,1,21.117
10,Com2,32,5.3,5.6,4.4,6.5,3.2,7.7,1,3,4.672
10,SimB1,33,4.5,2.6,3.6,3.5,4.6,2.5,2,1,45.245
10,Com1,33,7.3,3.8,5.3,5.8,4.3,6.8,2,1,2.591
10,SimB2,34,4.5,2.5,3.5,3.5,3.4,3.6,2,3,26.465
10,AttR2,34,2.0,4.6,4.3,2.3,4.3,1.6,1,1,10.545
10,Com2,34,5.4,5.8,4.3,6.9,3.5,7.7,2,3,3.906
10,SimB1,35,4.5,2.5,3.5,3.5,4.6,2.4,2,1,117.694
10,AttR1,35,2.6,4.4,4.7,2.3,2.0,4.4,1,1,9.197
10,SimB2,36,4.6,2.6,3.6,3.6,3.5,3.7,2,3,7.263
10,AttR2,36,2.5,4.5,4.6,2.4,4.6,1.8,1,1,11.711
10,SimA1,37,2.6,4.7,3.6,3.7,2.5,4.8,3,2,69.728
10,Com2,37,5.2,5.6,4.3,6.5,3.1,7.7,1,2,5.569
10,AttR2,39,2.3,4.8,4.5,2.6,4.5,1.9,2,2,6.096
10,SimA1,40,2.5,4.5,3.5,3.5,2.4,4.6,1,2,28.543
10,SimA2,41,2.7,4.5,3.6,3.6,3.8,3.4,2,1,90.575
10,AttR1,41,1.9,4.9,4.8,2.0,1.2,4.9,2,1,6.463
10,Com1,42,7.3,3.6,5.2,5.7,4.1,6.8,3,3,11.2
10,SimA2,43,2.7,4.5,3.6,3.6,3.8,3.4,3,3,38.99
10,AttR2,43,2.6,4.5,4.6,2.5,4.6,1.9,3,2,9.023
10,AttR1,45,2.6,4.5,4.6,2.5,1.9,4.5,1,1,7.997
10,Com2,45,5.3,5.7,4.2,6.8,3.3,7.7,2,3,4.317
10,Com2,46,5.3,5.8,4.4,6.7,3.2,7.9,2,2,2.241
10,AttR2,47,2.2,4.6,4.4,2.4,4.4,1.6,3,1,12.418
10,SimA1,48,2.6,4.4,3.5,3.5,2.5,4.5,3,2,8.033
10,AttR2,48,2.5,4.4,4.5,2.4,4.5,1.6,1,2,8.383
10,SimB2,49,4.6,2.7,3.6,3.7,3.5,3.8,2,3,60.446
10,Com2,49,5.2,5.8,4.1,6.9,3.1,7.9,3,2,0.719
10,SimA2,50,2.6,4.4,3.5,3.5,3.7,3.3,2,3,7.267
10,AttR2,50,2.5,4.6,4.4,2.7,4.4,2.1,2,2,13.647
10,SimA1,51,2.4,4.7,3.5,3.6,2.2,4.9,1,3,14.701
10,Com1,52,7.4,3.5,5.3,5.6,4.4,6.5,2,3,4.001
10,Com1,53,7.3,3.6,5.3,5.6,4.4,6.5,2,3,3.63
10,AttR1,54,2.5,4.5,4.6,2.4,1.9,4.5,1,2,10.816
10,AttR2,55,2.3,4.6,4.4,2.5,4.4,1.8,2,2,5.664
10,Com1,55,7.4,3.6,5.3,5.7,4.3,6.7,2,2,3.216
10,AttR2,56,2.6,4.4,4.7,2.3,4.7,1.7,1,2,5.983
10,SimA2,57,2.4,4.6,3.4,3.6,3.6,3.4,2,3,23.887
10,AttR1,57,2.5,4.5,4.8,2.2,1.9,4.5,1,2,12.416
10,AttR1,58,2.4,4.7,4.6,2.5,1.6,4.7,1,1,7.839
10,Com1,58,7.4,3.7,5.4,5.7,4.4,6.7,3,3,3.965
10,SimB2,59,4.3,2.5,3.4,3.4,3.3,3.5,2,1,10.063
10,Com2,59,5.3,5.8,4.3,6.8,3.4,7.7,3,3,2.414
10,SimA1,60,2.4,4.6,3.5,3.5,2.2,4.8,3,3,4.562
10,AttR1,60,2.5,4.5,4.7,2.3,1.8,4.5,2,1,10.637
10,Com1,60,7.4,3.6,5.3,5.7,4.4,6.6,1,1,2.479
10,SimB2,61,4.5,2.5,3.5,3.5,3.3,3.7,2,3,25.711
10,SimA1,62,2.7,4.5,3.6,3.6,2.5,4.7,1,3,19.069
10,SimA2,63,2.5,4.5,3.5,3.5,3.6,3.4,3,1,7.632
10,AttR2,63,2.2,4.8,4.5,2.5,4.5,1.9,1,3,15.105
10,Com1,64,7.4,3.6,5.4,5.6,4.4,6.6,2,3,8.335
10,AttR2,65,2.4,4.4,4.7,2.1,4.7,1.3,2,2,4.674
10,SimA2,66,2.4,4.7,3.5,3.6,3.7,3.4,3,3,3.806
10,Com1,67,7.3,3.9,5.4,5.8,4.5,6.7,1,2,2.414
10,Com2,68,5.4,5.6,4.4,6.6,3.5,7.5,2,2,5.327
10,SimB1,69,4.6,2.6,3.6,3.6,4.8,2.4,1,1,7.282
10,Com2,69,5.3,5.8,4.2,6.9,3.3,7.8,3,1,4.815
10,AttR2,70,2.2,4.8,4.5,2.5,4.5,1.9,3,2,4.926
10,Com1,70,7.3,3.5,5.2,5.6,4.1,6.7,2,3,7.522
10,AttR1,71,2.3,4.6,4.4,2.5,1.5,4.6,3,2,6.4
10,Com2,71,5.4,5.6,4.5,6.5,3.4,7.6,1,2,2.769
10,Com1,72,7.4,3.5,5.3,5.6,4.3,6.6,3,3,5.727
10,Com1,73,7.3,3.5,5.2,5.6,4.3,6.5,3,2,3.536
10,SimB1,74,4.3,2.5,3.4,3.4,4.4,2.4,3,1,4.238
10,AttR2,74,2.6,4.6,4.8,2.4,4.8,1.7,3,2,1.746
10,SimB2,78,4.6,2.6,3.6,3.6,3.5,3.7,3,3,8.995
10,AttR2,78,2.6,4.6,4.8,2.4,4.8,1.8,2,2,3.039
10,Com1,79,7.4,3.7,5.3,5.8,4.3,6.8,1,2,11.935
10,AttR2,80,2.4,4.7,4.6,2.5,4.6,1.7,2,2,4.014
11,AttR2,1,2.4,4.4,4.7,2.1,4.7,1.3,3,2,88.182
11,SimB2,1,4.6,2.7,3.6,3.7,3.5,3.8,1,3,2.439
11,Com1,2,7.3,3.8,5.3,5.8,4.3,6.8,1,3,2.415
11,SimA1,2,2.4,4.6,3.4,3.6,2.2,4.8,2,3,2.289
11,AttR1,5,2.5,4.6,4.4,2.7,1.9,4.6,1,2,10.194
11,SimB1,5,4.4,2.6,3.5,3.5,4.5,2.5,3,3,3.217
11,AttR2,6,2.5,4.5,4.4,2.6,4.4,2.0,3,3,10.369
11,Com1,6,7.3,3.6,5.3,5.6,4.2,6.7,3,3,2.992
11,AttR2,7,2.2,4.8,4.5,2.5,4.5,1.9,2,2,5.635
11,Com2,7,5.3,5.6,4.4,6.5,3.2,7.7,1,3,2.032
11,SimB1,7,4.3,2.5,3.4,3.4,4.4,2.4,3,2,6.336
11,AttR1,8,2.4,4.4,4.7,2.1,1.7,4.4,3,2,10.66
11,Com2,9,5.4,5.6,4.5,6.5,3.4,7.6,3,3,2.288
11,SimB2,9,4.6,2.6,3.6,3.6,3.5,3.7,3,2,2.593
11,Com1,10,7.4,3.6,5.3,5.7,4.4,6.6,2,3,1.774
11,SimB1,10,4.4,2.7,3.5,3.6,4.5,2.6,3,1,3.727
11,SimB2,11,4.3,2.5,3.4,3.4,3.3,3.5,2,3,4.063
11,AttR2,12,2.2,4.6,4.4,2.4,4.4,1.6,3,2,19.201
11,Com1,12,7.1,3.9,5.2,5.8,4.1,6.9,1,3,6.462
11,SimB2,12,4.4,2.7,3.5,3.6,3.4,3.7,3,3,3.776
11,Com1,13,7.4,3.6,5.4,5.6,4.5,6.5,3,3,19.489
11,AttR1,14,2.2,4.8,4.5,2.5,1.5,4.8,2,1,36.257
11,SimB1,14,4.6,2.6,3.6,3.6,4.8,2.4,2,2,6.525
11,AttR2,15,2.6,4.6,4.8,2.4,4.8,1.8,3,2,19.283
11,Com2,16,5.3,5.8,4.3,6.8,3.4,7.7,1,3,3.984
11,SimA2,16,2.7,4.5,3.6,3.6,3.8,3.4,2,1,3.683
11,Com1,17,7.4,3.8,5.4,5.8,4.3,6.9,3,3,12.977
11,AttR1,18,2.6,4.4,4.7,2.3,2.0,4.4,3,1,4.868
11,Com1,18,7.3,3.6,5.2,5.7,4.1,6.8,2,3,5.456
11,Com1,19,7.4,3.7,5.3,5.8,4.3,6.8,1,3,10.269
11,SimA1,20,2.6,4.4,3.5,3.5,2.5,4.5,3,3,2.43
11,SimB1,21,4.5,2.6,3.6,3.5,4.6,2.5,3,2,2.561
11,Com1,22,7.4,3.6,5.3,5.7,4.3,6.7,3,2,4.061
11,SimB2,22,4.6,2.6,3.6,3.6,3.5,3.7,2,3,2.238
11,AttR1,23,1.9,4.9,4.8,2.0,1.2,4.9,1,3,48.369
11,Com2,23,5.3,5.8,4.2,6.9,3.3,7.8,3,3,4.772
11,AttR2,25,1.9,4.9,4.8,2.0,4.8,1.4,3,1,35.904
11,Com1,25,7.3,3.9,5.4,5.8,4.5,6.7,2,3,1.375
11,SimB1,25,4.6,2.6,3.6,3.6,4.8,2.4,2,2,2.562
11,Com2,26,5.2,5.8,4.1,6.9,3.1,7.9,1,3,4.117
11,SimA2,26,2.6,4.7,3.6,3.7,3.8,3.5,2,1,2.576
11,Com1,28,7.3,3.5,5.2,5.6,4.1,6.7,2,3,3.184
11,Com2,29,5.2,5.6,4.3,6.5,3.1,7.7,3,3,2.575
11,SimA2,29,2.5,4.3,3.4,3.4,3.6,3.2,2,1,2.046
11,Com1,30,7.4,3.7,5.3,5.8,4.2,6.9,3,3,4.097
11,AttR1,31,2.5,4.5,4.6,2.4,1.9,4.5,2,3,27.296
11,SimB1,31,4.5,2.5,3.5,3.5,4.6,2.4,3,2,2.787
11,AttR2,33,2.5,4.6,4.4,2.7,4.4,2.1,1,3,133.935
11,AttR1,34,2.6,4.6,4.8,2.4,1.9,4.6,1,1,13.166
11,Com2,34,5.2,5.6,4.1,6.7,3.3,7.5,1,3,2.769
11,SimA1,34,2.5,4.3,3.4,3.4,2.4,4.4,1,3,2.686
11,AttR2,35,2.3,4.6,4.5,2.4,4.5,1.7,3,1,10.975
11,Com2,35,5.4,5.8,4.3,6.9,3.5,7.7,3,3,2.801
11,SimA2,35,2.7,4.5,3.6,3.6,3.8,3.4,2,1,3.648
11,AttR2,36,2.5,4.4,4.5,2.4,4.5,1.6,2,2,15.792
11,Com1,36,7.4,3.6,5.4,5.6,4.4,6.6,2,3,3.601
11,SimA2,36,2.7,4.4,3.6,3.5,3.8,3.3,2,1,2.337
11,Com2,37,5.4,5.7,4.4,6.7,3.5,7.6,2,3,3.167
11,AttR1,38,2.2,4.6,4.4,2.4,1.4,4.6,2,1,26.386
11,AttR2,39,2.6,4.6,4.8,2.4,4.8,1.7,1,3,84.159
11,AttR1,40,2.5,4.5,4.7,2.3,1.8,4.5,3,3,65.68
11,Com1,40,7.3,3.6,5.3,5.6,4.4,6.5,1,1,3.04
11,SimA2,40,2.4,4.6,3.4,3.6,3.6,3.4,1,1,3.056
11,Com2,41,5.3,5.6,4.3,6.6,3.3,7.6,3,2,3.04
11,SimA1,41,2.7,4.5,3.6,3.6,2.6,4.6,3,3,3.775
11,AttR1,42,2.3,4.8,4.5,2.6,1.6,4.8,2,3,4.082
11,AttR1,43,2.4,4.7,4.6,2.5,1.6,4.7,3,1,4.719
11,AttR2,44,2.3,4.6,4.4,2.5,4.4,1.8,3,1,9.295
11,SimA2,44,2.4,4.6,3.5,3.5,3.7,3.3,3,1,5.841
11,AttR1,46,2.6,4.6,4.8,2.4,1.9,4.6,3,1,52.321
11,Com2,46,5.3,5.7,4.4,6.6,3.4,7.6,2,3,5.23
11,SimB2,46,4.5,2.5,3.5,3.5,3.4,3.6,1,3,5.598
11,AttR1,47,2.3,4.6,4.4,2.5,1.5,4.6,2,1,32.045
11,Com2,47,5.3,5.7,4.3,6.7,3.3,7.7,2,3,2.483
11,SimB2,48,4.3,2.7,3.4,3.6,3.2,3.8,3,2,3.007
11,AttR2,49,2.3,4.8,4.5,2.6,4.5,1.9,3,1,9.231
11,Com2,49,5.4,5.6,4.4,6.6,3.5,7.5,3,3,2.306
11,AttR1,50,2.5,4.5,4.8,2.2,1.9,4.5,1,3,11.054
11,SimB2,50,4.5,2.5,3.5,3.5,3.3,3.7,3,1,8.16
11,AttR2,51,2.5,4.5,4.6,2.4,4.6,1.8,1,1,3.904
11,SimB1,51,4.3,2.7,3.4,3.6,4.4,2.6,2,1,5.792
11,AttR1,52,2.0,4.6,4.3,2.3,1.4,4.6,3,2,60.525
11,Com1,52,7.4,3.7,5.4,5.7,4.4,6.7,2,3,27.516
11,SimB2,52,4.4,2.6,3.5,3.5,3.4,3.6,1,2,3.137
11,AttR2,53,2.4,4.7,4.6,2.5,4.6,1.7,3,1,22.289
11,SimA1,53,2.6,4.7,3.6,3.7,2.5,4.8,2,3,5.97
11,AttR2,55,2.0,4.6,4.3,2.3,4.3,1.6,2,1,4.163
11,SimB1,55,4.5,2.5,3.5,3.5,4.7,2.3,2,3,3.153
11,AttR1,56,2.5,4.5,4.4,2.6,1.8,4.5,3,1,3.501
11,Com1,56,7.2,3.9,5.3,5.8,4.4,6.7,1,2,2.191
11,SimA1,56,2.7,4.4,3.6,3.5,2.5,4.6,1,3,2.69
11,AttR2,57,2.2,4.8,4.5,2.5,4.5,1.9,1,3,3.73
11,AttR2,58,2.5,4.5,4.8,2.2,4.8,1.4,3,3,3.023
11,Com2,58,5.3,5.7,4.2,6.8,3.3,7.7,3,2,2.239
11,SimA2,58,2.6,4.4,3.5,3.5,3.7,3.3,1,1,2.526
11,AttR2,59,2.6,4.4,4.7,2.3,4.7,1.7,1,1,3.968
11,SimB2,59,4.5,2.6,3.6,3.5,3.5,3.6,2,2,2.321
11,SimA2,60,2.4,4.7,3.5,3.6,3.7,3.4,2,1,2.241
11,Com2,61,5.3,5.8,4.3,6.8,3.2,7.9,1,3,1.665
11,Com2,64,5.3,5.8,4.4,6.7,3.2,7.9,2,1,6.033
11,SimB1,64,4.6,2.7,3.6,3.7,4.7,2.6,2,2,2.402
11,AttR1,65,2.2,4.8,4.5,2.5,1.6,4.8,1,3,7.135
11,Com1,65,7.3,3.5,5.2,5.6,4.3,6.5,3,1,3.296
11,SimA1,66,2.5,4.5,3.5,3.5,2.4,4.6,3,3,2.545
11,AttR2,67,2.5,4.5,4.7,2.3,4.7,1.6,1,3,5.65
11,Com2,68,5.3,5.6,4.4,6.5,3.3,7.6,2,3,1.999
11,Com2,69,5.3,5.6,4.2,6.7,3.4,7.5,3,3,2.046
11,Com1,71,7.4,3.5,5.3,5.6,4.3,6.6,1,3,2.576
11,SimA1,71,2.7,4.5,3.6,3.6,2.5,4.7,1,3,2.352
11,AttR1,72,2.5,4.4,4.5,2.4,1.8,4.4,2,3,4.35
11,Com2,74,5.4,5.8,4.5,6.7,3.3,7.9,3,3,2.769
11,AttR1,75,2.6,4.5,4.6,2.5,1.9,4.5,2,3,1.937
11,Com1,75,7.4,3.5,5.3,5.6,4.4,6.5,1,2,2.701
11,Com2,76,5.2,5.7,4.1,6.8,3.2,7.7,2,1,2.817
11,SimA1,77,2.4,4.6,3.5,3.5,2.2,4.8,1,1,3.615
11,SimA2,78,2.5,4.5,3.5,3.5,3.6,3.4,1,3,3.537
11,AttR1,79,2.3,4.6,4.5,2.4,1.7,4.6,3,3,2.066
11,SimA1,79,2.4,4.7,3.5,3.6,2.2,4.9,3,2,2.706
11,AttR2,80,2.6,4.5,4.6,2.5,4.6,1.9,1,1,1.872
11,Com1,80,7.3,3.7,5.3,5.7,4.2,6.8,2,3,2.446
12,SimB2,2,4.4,2.7,3.5,3.6,3.4,3.7,2,2,22.482
12,Com1,2,7.1,3.9,5.2,5.8,4.1,6.9,1,2,5.424
12,SimB2,3,4.3,2.5,3.4,3.4,3.3,3.5,1,2,13.347
12,SimA1,4,2.7,4.4,3.6,3.5,2.5,4.6,3,2,16.626
12,Com1,4,7.3,3.5,5.2,5.6,4.1,6.7,1,2,3.695
12,SimA2,6,2.7,4.5,3.6,3.6,3.8,3.4,3,2,11.043
12,AttR2,6,1.9,4.9,4.8,2.0,4.8,1.4,1,2,12.033
12,Com1,6,7.3,3.9,5.4,5.8,4.5,6.7,2,2,8.703
12,SimB2,7,4.5,2.5,3.5,3.5,3.3,3.7,3,2,10.084
12,AttR2,7,2.5,4.5,4.7,2.3,4.7,1.6,1,1,9.023
12,SimB1,8,4.5,2.5,3.5,3.5,4.7,2.3,2,2,7.058
12,Com2,8,5.3,5.6,4.2,6.7,3.4,7.5,1,2,5.711
12,SimB1,9,4.6,2.7,3.6,3.7,4.7,2.6,2,2,13.394
12,AttR2,9,2.2,4.8,4.5,2.5,4.5,1.9,2,2,23.938
12,Com1,9,7.3,3.6,5.3,5.6,4.2,6.7,2,2,5.84
12,Com1,11,7.4,3.6,5.3,5.7,4.4,6.6,3,2,6.045
12,Com2,12,5.3,5.7,4.3,6.7,3.3,7.7,3,2,4.402
12,Com2,13,5.3,5.6,4.4,6.5,3.2,7.7,1,2,7.79
12,AttR2,14,2.2,4.6,4.4,2.4,4.4,1.6,2,2,7.519
12,AttR1,15,2.4,4.4,4.7,2.1,1.7,4.4,1,1,10.813
12,Com2,15,5.2,5.6,4.1,6.7,3.3,7.5,1,2,6.848
12,AttR2,18,2.6,4.4,4.7,2.3,4.7,1.7,1,2,8.977
12,SimB1,19,4.5,2.6,3.6,3.5,4.6,2.5,2,1,11.809
12,AttR2,19,2.5,4.6,4.4,2.7,4.4,2.1,2,2,7.535
12,Com1,19,7.3,3.6,5.3,5.6,4.4,6.5,1,2,4.64
12,SimA2,20,2.4,4.6,3.4,3.6,3.6,3.4,1,3,34.21
12,Com1,20,7.3,3.7,5.3,5.7,4.2,6.8,2,2,3.393
12,SimB2,22,4.6,2.7,3.6,3.7,3.5,3.8,3,2,11.972
12,AttR1,22,2.6,4.6,4.8,2.4,1.9,4.6,2,1,7.602
12,SimB1,23,4.3,2.7,3.4,3.6,4.4,2.6,1,2,17.809
12,AttR1,23,2.2,4.8,4.5,2.5,1.6,4.8,2,1,16.639
12,SimA2,24,2.7,4.5,3.6,3.6,3.8,3.4,3,2,19.059
12,AttR2,25,2.4,4.7,4.6,2.5,4.6,1.7,2,2,24.402
12,Com2,25,5.3,5.8,4.3,6.8,3.4,7.7,2,2,6.847
12,SimA1,26,2.4,4.6,3.5,3.5,2.2,4.8,1,2,19.79
12,AttR1,26,2.6,4.6,4.8,2.4,1.9,4.6,3,1,5.499
12,SimB2,27,4.6,2.6,3.6,3.6,3.5,3.7,3,2,3.79
12,Com1,27,7.4,3.8,5.4,5.8,4.3,6.9,2,2,3.247
12,SimB1,28,4.3,2.5,3.4,3.4,4.4,2.4,1,2,5.742
12,AttR1,28,2.5,4.5,4.6,2.4,1.9,4.5,3,1,2.815
12,Com2,28,5.4,5.8,4.5,6.7,3.3,7.9,1,2,3.394
12,AttR2,29,2.2,4.8,4.5,2.5,4.5,1.9,3,2,10.305
12,Com1,30,7.4,3.7,5.3,5.8,4.3,6.8,2,2,3.279
12,SimB1,32,4.6,2.6,3.6,3.6,4.8,2.4,3,2,7.313
12,AttR1,32,2.3,4.6,4.5,2.4,1.7,4.6,1,1,4.928
12,SimA2,33,2.4,4.6,3.5,3.5,3.7,3.3,1,2,2.67
12,AttR2,33,2.0,4.6,4.3,2.3,4.3,1.6,2,2,24.703
12,Com1,33,7.4,3.5,5.3,5.6,4.4,6.5,2,2,10.082
12,Com1,34,7.4,3.7,5.3,5.8,4.2,6.9,3,2,4.255
12,AttR1,35,2.5,4.5,4.4,2.6,1.8,4.5,2,1,3.807
12,Com2,35,5.2,5.8,4.1,6.9,3.1,7.9,3,2,10.078
12,AttR1,36,2.5,4.5,4.7,2.3,1.8,4.5,2,1,2.51
12,Com2,36,5.3,5.7,4.4,6.6,3.4,7.6,3,2,4.995
12,SimA2,37,2.6,4.4,3.5,3.5,3.7,3.3,1,2,4.865
12,Com1,40,7.3,3.6,5.2,5.7,4.1,6.8,1,2,6.451
12,SimA1,41,2.4,4.6,3.4,3.6,2.2,4.8,3,2,11.791
12,AttR1,41,2.6,4.4,4.7,2.3,2.0,4.4,3,1,6.205
12,SimA1,42,2.6,4.7,3.6,3.7,2.5,4.8,3,2,4.624
12,AttR1,42,2.4,4.7,4.6,2.5,1.6,4.7,3,1,8.545
12,Com2,42,5.2,5.6,4.3,6.5,3.1,7.7,3,2,4.176
12,SimB2,43,4.3,2.7,3.4,3.6,3.2,3.8,1,2,6.754
12,AttR1,43,2.3,4.8,4.5,2.6,1.6,4.8,2,1,6.977
12,AttR2,44,2.3,4.8,4.5,2.6,4.5,1.9,3,2,7.087
12,SimB2,45,4.4,2.6,3.5,3.5,3.4,3.6,2,2,11.953
12,AttR1,45,2.3,4.6,4.4,2.5,1.5,4.6,2,1,5.215
12,AttR1,46,2.2,4.6,4.4,2.4,1.4,4.6,2,1,5.537
12,Com2,46,5.3,5.6,4.3,6.6,3.3,7.6,1,2,4.35
12,SimA2,47,2.7,4.4,3.6,3.5,3.8,3.3,3,2,3.072
12,Com2,47,5.3,5.7,4.2,6.8,3.3,7.7,1,2,3.741
12,AttR2,49,2.5,4.5,4.6,2.4,4.6,1.8,3,2,3.697
12,Com2,49,5.3,5.8,4.3,6.8,3.2,7.9,1,2,3.312
12,SimB2,50,4.5,2.5,3.5,3.5,3.4,3.6,1,2,3.857
12,AttR1,50,2.5,4.4,4.5,2.4,1.8,4.4,3,1,2.926
12,Com1,50,7.3,3.8,5.3,5.8,4.3,6.8,3,2,3.712
12,AttR1,51,2.5,4.5,4.8,2.2,1.9,4.5,1,1,3.952
12,Com2,51,5.4,5.6,4.5,6.5,3.4,7.6,2,2,5.073
12,SimB1,52,4.4,2.7,3.5,3.6,4.5,2.6,2,2,3.199
12,AttR2,53,2.3,4.6,4.4,2.5,4.4,1.8,2,2,2.288
12,AttR2,54,2.3,4.6,4.5,2.4,4.5,1.7,3,2,2.431
12,Com1,54,7.4,3.7,5.4,5.7,4.4,6.7,3,2,3.026
12,SimB2,56,4.5,2.6,3.6,3.5,3.5,3.6,1,3,5.246
12,AttR2,56,2.6,4.6,4.8,2.4,4.8,1.8,1,2,4.125
12,Com1,56,7.4,3.6,5.3,5.7,4.3,6.7,2,2,2.847
12,SimA2,57,2.5,4.3,3.4,3.4,3.6,3.2,3,2,3.634
12,SimA2,58,2.5,4.5,3.5,3.5,3.6,3.4,2,2,2.815
12,AttR2,58,2.6,4.6,4.8,2.4,4.8,1.7,3,2,3.791
12,Com2,58,5.4,5.6,4.4,6.6,3.5,7.5,2,2,4.175
12,SimA1,59,2.6,4.4,3.5,3.5,2.5,4.5,1,2,2.287
12,Com1,59,7.4,3.6,5.4,5.6,4.4,6.6,1,2,5.376
12,AttR2,60,2.6,4.5,4.6,2.5,4.6,1.9,1,2,5.647
12,SimB1,61,4.4,2.6,3.5,3.5,4.5,2.5,3,2,3.838
12,SimA1,62,2.5,4.3,3.4,3.4,2.4,4.4,2,2,3.008
12,Com2,62,5.2,5.7,4.1,6.8,3.2,7.7,1,2,4.064
12,SimB2,63,4.6,2.6,3.6,3.6,3.5,3.7,3,2,2.111
12,AttR1,63,2.6,4.5,4.6,2.5,1.9,4.5,3,1,15.823
12,AttR2,64,2.5,4.5,4.8,2.2,4.8,1.4,3,2,5.728
12,Com2,66,5.3,5.8,4.4,6.7,3.2,7.9,1,2,3.555
12,SimA2,68,2.4,4.7,3.5,3.6,3.7,3.4,3,2,5.345
12,AttR1,69,2.2,4.8,4.5,2.5,1.5,4.8,1,1,5.585
12,Com2,69,5.4,5.7,4.4,6.7,3.5,7.6,2,2,4.32
12,AttR2,70,2.5,4.5,4.4,2.6,4.4,2.0,2,2,2.833
12,Com2,70,5.4,5.8,4.3,6.9,3.5,7.7,1,2,4.177
12,SimB1,71,4.5,2.5,3.5,3.5,4.6,2.4,1,2,5.922
12,AttR2,71,2.4,4.4,4.7,2.1,4.7,1.3,3,2,4.543
12,Com1,71,7.3,3.5,5.2,5.6,4.3,6.5,3,2,5.519
12,SimA1,72,2.4,4.7,3.5,3.6,2.2,4.9,1,2,3.073
12,AttR1,72,2.0,4.6,4.3,2.3,1.4,4.6,1,1,4.862
12,Com2,72,5.3,5.8,4.2,6.9,3.3,7.8,1,2,3.57
12,SimA1,74,2.7,4.5,3.6,3.6,2.5,4.7,3,2,3.807
12,AttR1,74,2.5,4.6,4.4,2.7,1.9,4.6,3,1,3.169
12,SimB1,75,4.6,2.6,3.6,3.6,4.8,2.4,3,2,2.479
12,Com1,75,7.4,3.6,5.4,5.6,4.5,6.5,1,2,3.167
12,SimA1,76,2.7,4.5,3.6,3.6,2.6,4.6,2,2,1.762
12,AttR2,76,2.5,4.4,4.5,2.4,4.5,1.6,1,2,3.31
12,SimA2,77,2.6,4.7,3.6,3.7,3.8,3.5,1,2,4.782
12,AttR1,77,1.9,4.9,4.8,2.0,1.2,4.9,1,1,5.2
12,Com1,77,7.2,3.9,5.3,5.8,4.4,6.7,2,2,6.063
12,Com1,78,7.4,3.5,5.3,5.6,4.3,6.6,2,2,10.817
12,SimA1,79,2.5,4.5,3.5,3.5,2.4,4.6,1,2,1.84
12,Com2,79,5.3,5.6,4.4,6.5,3.3,7.6,3,2,5.969
13,Com1,1,7.4,3.8,5.4,5.8,4.3,6.9,2,2,26.279
13,Com2,3,5.3,5.8,4.2,6.9,3.3,7.8,3,2,24.981
13,AttR1,3,2.6,4.4,4.7,2.3,2.0,4.4,1,1,8.977
13,SimA1,4,2.6,4.7,3.6,3.7,2.5,4.8,1,2,3.678
13,Com2,5,5.3,5.6,4.2,6.7,3.4,7.5,3,2,4.468
13,AttR2,5,2.2,4.6,4.4,2.4,4.4,1.6,2,2,6.896
13,SimA1,5,2.4,4.7,3.5,3.6,2.2,4.9,1,2,2.177
13,AttR1,6,2.4,4.4,4.7,2.1,1.7,4.4,3,1,17.712
13,Com2,7,5.4,5.7,4.4,6.7,3.5,7.6,2,2,9.026
13,AttR2,7,2.6,4.4,4.7,2.3,4.7,1.7,3,1,6.579
13,Com1,8,7.4,3.6,5.3,5.7,4.4,6.6,3,2,4.21
13,AttR1,8,2.5,4.5,4.7,2.3,1.8,4.5,2,2,8.783
13,Com1,9,7.3,3.6,5.2,5.7,4.1,6.8,3,2,7.379
13,SimB1,9,4.6,2.7,3.6,3.7,4.7,2.6,1,2,1.855
13,AttR2,10,2.6,4.6,4.8,2.4,4.8,1.7,1,1,5.553
13,Com1,11,7.3,3.7,5.3,5.7,4.2,6.8,3,3,5.844
13,AttR1,11,2.6,4.6,4.8,2.4,1.9,4.6,2,1,7.455
13,SimB1,11,4.3,2.5,3.4,3.4,4.4,2.4,1,2,1.889
13,Com1,12,7.1,3.9,5.2,5.8,4.1,6.9,2,1,6.273
13,Com2,13,5.3,5.7,4.3,6.7,3.3,7.7,3,1,2.659
13,AttR2,13,2.6,4.6,4.8,2.4,4.8,1.8,2,1,7.024
13,Com1,16,7.4,3.6,5.3,5.7,4.3,6.7,3,3,4.452
13,AttR2,16,2.5,4.5,4.6,2.4,4.6,1.8,2,1,4.273
13,SimA1,16,2.7,4.5,3.6,3.6,2.5,4.7,2,2,2.032
13,Com2,17,5.3,5.7,4.2,6.8,3.3,7.7,3,3,10.337
13,Com1,18,7.3,3.6,5.3,5.6,4.4,6.5,1,1,3.012
13,AttR1,18,2.5,4.5,4.4,2.6,1.8,4.5,3,2,4.144
13,SimB1,18,4.4,2.7,3.5,3.6,4.5,2.6,1,2,2.257
13,AttR1,19,2.2,4.8,4.5,2.5,1.5,4.8,2,2,7.007
13,SimB2,19,4.5,2.6,3.6,3.5,3.5,3.6,2,3,5.521
13,Com2,20,5.3,5.8,4.3,6.8,3.4,7.7,3,2,6.112
13,SimA2,20,2.5,4.5,3.5,3.5,3.6,3.4,3,2,2.625
13,SimA1,21,2.7,4.4,3.6,3.5,2.5,4.6,3,2,2.063
13,AttR2,22,2.5,4.5,4.4,2.6,4.4,2.0,2,1,13.263
13,AttR2,23,2.3,4.6,4.4,2.5,4.4,1.8,1,2,12.384
13,AttR2,24,2.2,4.8,4.5,2.5,4.5,1.9,3,2,12.273
13,SimB2,24,4.5,2.5,3.5,3.5,3.4,3.6,1,2,3.281
13,AttR2,25,1.9,4.9,4.8,2.0,4.8,1.4,3,2,16.993
13,AttR2,26,2.3,4.6,4.5,2.4,4.5,1.7,1,2,9.683
13,SimB2,26,4.6,2.6,3.6,3.6,3.5,3.7,1,2,3.039
13,AttR2,27,2.3,4.8,4.5,2.6,4.5,1.9,2,2,9.661
13,SimB1,27,4.3,2.7,3.4,3.6,4.4,2.6,3,2,3.299
13,Com2,28,5.4,5.6,4.5,6.5,3.4,7.6,3,2,5.629
13,AttR1,28,2.4,4.7,4.6,2.5,1.6,4.7,1,2,5.441
13,SimB2,30,4.3,2.7,3.4,3.6,3.2,3.8,1,2,2.751
13,SimA2,31,2.5,4.3,3.4,3.4,3.6,3.2,1,2,1.472
13,Com1,33,7.3,3.6,5.3,5.6,4.2,6.7,2,1,2.658
13,SimB2,34,4.4,2.6,3.5,3.5,3.4,3.6,2,2,2.574
13,AttR2,35,2.4,4.4,4.7,2.1,4.7,1.3,3,1,6.544
13,Com1,36,7.3,3.8,5.3,5.8,4.3,6.8,1,1,2.56
13,SimA2,38,2.4,4.6,3.4,3.6,3.6,3.4,1,3,4.449
13,Com1,39,7.3,3.5,5.2,5.6,4.3,6.5,3,1,1.327
13,SimA1,39,2.4,4.6,3.5,3.5,2.2,4.8,3,2,5.505
13,SimB1,40,4.5,2.6,3.6,3.5,4.6,2.5,1,2,2.689
13,Com2,41,5.2,5.6,4.1,6.7,3.3,7.5,1,2,11.103
13,AttR2,41,2.4,4.7,4.6,2.5,4.6,1.7,3,2,8.623
13,SimA2,41,2.6,4.4,3.5,3.5,3.7,3.3,2,2,2.127
13,Com2,42,5.3,5.6,4.4,6.5,3.3,7.6,1,2,13.822
13,SimA1,42,2.6,4.4,3.5,3.5,2.5,4.5,2,2,1.121
13,Com1,43,7.4,3.7,5.4,5.7,4.4,6.7,2,1,2.447
13,AttR1,43,2.3,4.6,4.5,2.4,1.7,4.6,2,2,11.184
13,SimA1,45,2.4,4.6,3.4,3.6,2.2,4.8,1,2,2.129
13,SimA2,47,2.7,4.5,3.6,3.6,3.8,3.4,2,2,2.785
13,Com2,48,5.3,5.6,4.4,6.5,3.2,7.7,1,3,10.398
13,AttR1,48,2.6,4.5,4.6,2.5,1.9,4.5,1,1,10.015
13,SimB2,48,4.5,2.5,3.5,3.5,3.3,3.7,3,2,2.576
13,Com1,49,7.4,3.5,5.3,5.6,4.3,6.6,3,3,10.274
13,AttR1,49,2.6,4.6,4.8,2.4,1.9,4.6,3,1,6.398
13,Com1,50,7.4,3.5,5.3,5.6,4.4,6.5,3,2,5.519
13,AttR2,50,2.6,4.5,4.6,2.5,4.6,1.9,3,1,8.499
13,AttR1,51,2.2,4.6,4.4,2.4,1.4,4.6,2,2,3.311
13,SimB1,51,4.6,2.6,3.6,3.6,4.8,2.4,3,2,1.936
13,Com1,53,7.4,3.7,5.3,5.8,4.2,6.9,2,3,4.208
13,AttR1,53,2.5,4.5,4.6,2.4,1.9,4.5,2,2,19.824
13,Com2,54,5.3,5.8,4.4,6.7,3.2,7.9,2,2,5.696
13,AttR2,55,2.0,4.6,4.3,2.3,4.3,1.6,2,2,3.807
13,SimA1,55,2.7,4.5,3.6,3.6,2.6,4.6,2,2,7.438
13,Com2,56,5.2,5.6,4.3,6.5,3.1,7.7,1,2,5.055
13,AttR2,56,2.5,4.4,4.5,2.4,4.5,1.6,2,1,5.423
13,AttR1,57,2.5,4.5,4.8,2.2,1.9,4.5,3,1,7.073
13,SimB1,57,4.4,2.6,3.5,3.5,4.5,2.5,2,2,6.435
13,Com1,58,7.4,3.7,5.3,5.8,4.3,6.8,1,2,8.0
13,AttR1,58,1.9,4.9,4.8,2.0,1.2,4.9,2,2,7.327
13,SimA2,58,2.4,4.7,3.5,3.6,3.7,3.4,3,2,2.608
13,Com2,59,5.4,5.6,4.4,6.6,3.5,7.5,2,2,2.337
13,AttR1,59,2.0,4.6,4.3,2.3,1.4,4.6,2,2,4.832
13,Com1,60,7.3,3.9,5.4,5.8,4.5,6.7,2,1,2.095
13,SimA2,61,2.7,4.5,3.6,3.6,3.8,3.4,1,2,1.825
13,Com2,62,5.4,5.8,4.3,6.9,3.5,7.7,2,3,1.102
13,SimA2,62,2.6,4.7,3.6,3.7,3.8,3.5,2,2,2.11
13,Com1,64,7.3,3.5,5.2,5.6,4.1,6.7,1,3,3.854
13,SimA1,64,2.5,4.3,3.4,3.4,2.4,4.4,1,2,3.201
13,Com1,65,7.4,3.6,5.4,5.6,4.4,6.6,1,3,6.799
13,AttR2,65,2.2,4.8,4.5,2.5,4.5,1.9,3,2,3.805
13,SimB2,65,4.6,2.6,3.6,3.6,3.5,3.7,3,2,2.238
13,AttR1,66,2.3,4.8,4.5,2.6,1.6,4.8,1,2,3.471
13,SimB1,66,4.5,2.5,3.5,3.5,4.7,2.3,2,2,2.576
13,Com2,67,5.3,5.8,4.3,6.8,3.2,7.9,2,2,4.479
13,SimB2,69,4.4,2.7,3.5,3.6,3.4,3.7,1,2,2.608
13,AttR2,70,2.5,4.6,4.4,2.7,4.4,2.1,2,2,5.52
13,SimB1,70,4.6,2.6,3.6,3.6,4.8,2.4,2,2,1.598
13,Com2,71,5.2,5.7,4.1,6.8,3.2,7.7,2,1,3.232
13,SimB2,71,4.6,2.7,3.6,3.7,3.5,3.8,2,2,1.521
13,Com2,72,5.2,5.8,4.1,6.9,3.1,7.9,3,2,8.271
13,AttR1,72,2.5,4.6,4.4,2.7,1.9,4.6,3,2,5.55
13,Com2,73,5.3,5.6,4.3,6.6,3.3,7.6,2,3,5.228
13,AttR2,73,2.5,4.5,4.7,2.3,4.7,1.6,2,1,9.696
13,SimA2,73,2.7,4.4,3.6,3.5,3.8,3.3,3,2,2.158
13,AttR2,74,2.5,4.5,4.8,2.2,4.8,1.4,1,1,5.024
13,SimA1,74,2.5,4.5,3.5,3.5,2.4,4.6,2,2,1.712
13,Com1,75,7.4,3.6,5.4,5.6,4.5,6.5,3,3,2.208
13,AttR1,75,2.5,4.4,4.5,2.4,1.8,4.4,3,2,31.391
13,SimB2,76,4.3,2.5,3.4,3.4,3.3,3.5,3,2,2.814
13,Com2,77,5.4,5.8,4.5,6.7,3.3,7.9,2,2,6.16
13,AttR1,77,2.2,4.8,4.5,2.5,1.6,4.8,1,2,6.194
13,SimA2,77,2.4,4.6,3.5,3.5,3.7,3.3,3,2,1.375
13,Com1,78,7.2,3.9,5.3,5.8,4.4,6.7,3,1,2.818
13,AttR1,78,2.3,4.6,4.4,2.5,1.5,4.6,3,2,6.592
13,SimB1,78,4.5,2.5,3.5,3.5,4.6,2.4,3,2,1.11
13,Com2,79,5.3,5.7,4.4,6.6,3.4,7.6,3,2,5.247
14,Com2,1,5.4,5.6,4.4,6.6,3.5,7.5,1,2,17.574
14,SimA2,1,2.7,4.4,3.6,3.5,3.8,3.3,1,2,7.427
14,AttR1,2,2.6,4.6,4.8,2.4,1.9,4.6,1,2,34.307
14,Com1,2,7.4,3.7,5.4,5.7,4.4,6.7,2,3,7.294
14,SimA1,2,2.5,4.5,3.5,3.5,2.4,4.6,3,3,4.075
14,AttR1,3,2.5,4.6,4.4,2.7,1.9,4.6,3,1,16.547
14,Com2,3,5.4,5.6,4.5,6.5,3.4,7.6,1,2,5.311
14,SimA1,3,2.7,4.5,3.6,3.6,2.6,4.6,3,3,3.727
14,AttR1,5,2.5,4.5,4.7,2.3,1.8,4.5,1,2,10.194
14,Com1,5,7.4,3.7,5.3,5.8,4.3,6.8,1,2,16.542
14,AttR2,6,2.3,4.8,4.5,2.6,4.5,1.9,2,2,14.194
14,Com1,6,7.4,3.6,5.4,5.6,4.4,6.6,3,2,8.208
14,SimA2,6,2.4,4.6,3.4,3.6,3.6,3.4,3,1,3.665
14,AttR2,7,2.4,4.4,4.7,2.1,4.7,1.3,2,2,6.083
14,Com2,7,5.4,5.8,4.3,6.9,3.5,7.7,2,2,7.967
14,AttR2,9,2.2,4.8,4.5,2.5,4.5,1.9,2,1,7.54
14,AttR2,10,2.2,4.6,4.4,2.4,4.4,1.6,1,1,9.858
14,AttR1,11,2.4,4.4,4.7,2.1,1.7,4.4,2,2,5.905
14,SimA2,12,2.5,4.3,3.4,3.4,3.6,3.2,1,3,8.334
14,AttR2,13,2.5,4.6,4.4,2.7,4.4,2.1,3,1,7.011
14,AttR2,14,2.6,4.6,4.8,2.4,4.8,1.7,3,2,7.186
14,SimB1,14,4.4,2.6,3.5,3.5,4.5,2.5,1,3,7.118
14,Com2,15,5.3,5.7,4.4,6.6,3.4,7.6,3,3,7.326
14,SimB2,15,4.3,2.7,3.4,3.6,3.2,3.8,3,3,6.222
14,Com1,16,7.3,3.6,5.3,5.6,4.2,6.7,2,3,5.904
14,SimB1,16,4.3,2.5,3.4,3.4,4.4,2.4,2,3,3.407
14,AttR1,17,2.5,4.5,4.6,2.4,1.9,4.5,1,2,8.723
14,Com2,17,5.3,5.8,4.3,6.8,3.4,7.7,2,1,9.597
14,Com1,20,7.4,3.6,5.3,5.7,4.4,6.6,3,1,9.312
14,AttR1,21,2.2,4.6,4.4,2.4,1.4,4.6,3,1,9.809
14,Com2,21,5.3,5.8,4.3,6.8,3.2,7.9,2,3,65.346
14,SimB1,21,4.5,2.5,3.5,3.5,4.6,2.4,2,2,4.701
14,AttR2,22,2.0,4.6,4.3,2.3,4.3,1.6,3,1,12.337
14,AttR1,23,2.5,4.4,4.5,2.4,1.8,4.4,1,2,9.455
14,AttR1,24,2.6,4.5,4.6,2.5,1.9,4.5,2,1,17.04
14,SimA1,24,2.5,4.3,3.4,3.4,2.4,4.4,1,2,5.677
14,SimA2,26,2.4,4.6,3.5,3.5,3.7,3.3,2,2,6.715
14,SimB1,27,4.6,2.6,3.6,3.6,4.8,2.4,3,2,4.558
14,Com2,28,5.3,5.6,4.4,6.5,3.2,7.7,3,1,8.195
14,AttR2,29,2.3,4.6,4.5,2.4,4.5,1.7,1,1,13.759
14,SimA1,29,2.7,4.4,3.6,3.5,2.5,4.6,1,3,6.142
14,AttR2,30,2.6,4.5,4.6,2.5,4.6,1.9,3,2,14.014
14,Com2,30,5.3,5.8,4.2,6.9,3.3,7.8,3,1,9.795
14,AttR2,31,2.5,4.5,4.6,2.4,4.6,1.8,2,2,5.12
14,SimA2,31,2.6,4.4,3.5,3.5,3.7,3.3,1,1,4.368
14,AttR1,32,2.0,4.6,4.3,2.3,1.4,4.6,1,1,4.127
14,Com2,32,5.2,5.7,4.1,6.8,3.2,7.7,2,1,12.994
14,AttR2,33,2.5,4.4,4.5,2.4,4.5,1.6,2,3,7.759
14,Com1,33,7.3,3.6,5.3,5.6,4.4,6.5,2,2,8.658
14,SimB1,33,4.4,2.7,3.5,3.6,4.5,2.6,3,3,3.68
14,Com1,34,7.4,3.5,5.3,5.6,4.4,6.5,3,2,13.939
14,SimB2,34,4.5,2.6,3.6,3.5,3.5,3.6,1,2,4.717
14,Com1,35,7.4,3.5,5.3,5.6,4.3,6.6,3,2,5.297
14,SimB1,35,4.3,2.7,3.4,3.6,4.4,2.6,3,3,5.041
14,AttR1,36,2.4,4.7,4.6,2.5,1.6,4.7,2,1,7.839
14,SimB2,36,4.4,2.6,3.5,3.5,3.4,3.6,2,2,4.608
14,AttR1,37,2.6,4.4,4.7,2.3,2.0,4.4,2,2,7.15
14,Com2,37,5.4,5.7,4.4,6.7,3.5,7.6,1,1,4.292
14,AttR1,38,2.2,4.8,4.5,2.5,1.5,4.8,3,1,4.67
14,AttR2,39,2.4,4.7,4.6,2.5,4.6,1.7,2,2,2.977
14,Com1,39,7.4,3.6,5.4,5.6,4.5,6.5,3,2,5.153
14,SimB2,39,4.5,2.5,3.5,3.5,3.4,3.6,2,2,5.502
14,Com1,41,7.4,3.6,5.3,5.7,4.3,6.7,3,2,15.397
14,Com2,43,5.3,5.8,4.4,6.7,3.2,7.9,2,1,7.617
14,Com2,44,5.3,5.7,4.3,6.7,3.3,7.7,2,2,4.641
14,SimA2,46,2.6,4.7,3.6,3.7,3.8,3.5,2,3,2.974
14,AttR1,47,2.3,4.8,4.5,2.6,1.6,4.8,1,1,9.297
14,AttR2,48,2.3,4.6,4.4,2.5,4.4,1.8,2,1,8.206
14,Com2,48,5.3,5.6,4.4,6.5,3.3,7.6,3,1,3.667
14,SimA1,48,2.7,4.5,3.6,3.6,2.5,4.7,1,2,2.689
14,AttR2,49,2.5,4.5,4.8,2.2,4.8,1.4,2,2,7.07
14,Com1,49,7.3,3.5,5.2,5.6,4.1,6.7,1,2,3.922
14,SimB2,49,4.6,2.6,3.6,3.6,3.5,3.7,3,2,3.644
14,AttR2,50,2.6,4.4,4.7,2.3,4.7,1.7,1,2,18.319
14,AttR2,51,2.6,4.6,4.8,2.4,4.8,1.8,3,2,11.486
14,Com1,51,7.4,3.8,5.4,5.8,4.3,6.9,1,2,4.689
14,SimB1,51,4.6,2.6,3.6,3.6,4.8,2.4,2,3,3.823
14,AttR1,52,2.5,4.5,4.8,2.2,1.9,4.5,1,3,17.488
14,Com2,52,5.2,5.6,4.1,6.7,3.3,7.5,3,1,5.395
14,SimA1,52,2.6,4.4,3.5,3.5,2.5,4.5,1,3,4.11
14,SimA2,53,2.7,4.5,3.6,3.6,3.8,3.4,2,2,6.414
14,AttR1,54,2.5,4.5,4.4,2.6,1.8,4.5,2,2,4.91
14,Com2,54,5.2,5.8,4.1,6.9,3.1,7.9,2,1,6.242
14,Com2,55,5.3,5.6,4.2,6.7,3.4,7.5,3,1,7.438
14,SimB2,55,4.5,2.5,3.5,3.5,3.3,3.7,1,2,3.375
14,AttR2,56,2.5,4.5,4.7,2.3,4.7,1.6,2,2,5.215
14,Com2,56,5.3,5.7,4.2,6.8,3.3,7.7,3,1,8.415
14,SimA2,56,2.7,4.5,3.6,3.6,3.8,3.4,3,2,2.861
14,Com1,57,7.3,3.6,5.2,5.7,4.1,6.8,3,2,7.357
14,AttR1,58,2.6,4.6,4.8,2.4,1.9,4.6,2,1,14.432
14,Com1,58,7.3,3.8,5.3,5.8,4.3,6.8,3,2,8.959
14,SimB1,58,4.5,2.5,3.5,3.5,4.7,2.3,2,2,2.238
14,AttR2,59,1.9,4.9,4.8,2.0,4.8,1.4,1,2,11.999
14,SimA1,61,2.4,4.7,3.5,3.6,2.2,4.9,2,2,4.142
14,AttR1,63,2.3,4.6,4.5,2.4,1.7,4.6,1,1,11.584
14,Com1,63,7.2,3.9,5.3,5.8,4.4,6.7,3,2,10.174
14,SimA2,63,2.4,4.7,3.5,3.6,3.7,3.4,1,2,3.489
14,AttR1,64,2.3,4.6,4.4,2.5,1.5,4.6,2,1,6.75
14,SimB1,64,4.6,2.7,3.6,3.7,4.7,2.6,3,2,4.351
14,Com2,66,5.3,5.6,4.3,6.6,3.3,7.6,1,2,5.086
14,SimB1,66,4.5,2.6,3.6,3.5,4.6,2.5,3,2,2.912
14,Com1,67,7.1,3.9,5.2,5.8,4.1,6.9,1,2,7.742
14,SimB2,67,4.6,2.6,3.6,3.6,3.5,3.7,3,3,3.436
14,AttR2,69,2.2,4.8,4.5,2.5,4.5,1.9,3,2,6.846
14,Com1,69,7.4,3.7,5.3,5.8,4.2,6.9,2,2,7.887
14,Com1,70,7.3,3.5,5.2,5.6,4.3,6.5,2,2,5.566
14,SimB2,71,4.4,2.7,3.5,3.6,3.4,3.7,2,1,6.591
14,AttR2,72,2.5,4.5,4.4,2.6,4.4,2.0,1,1,5.057
14,Com2,73,5.2,5.6,4.3,6.5,3.1,7.7,3,1,3.356
14,SimB2,73,4.3,2.5,3.4,3.4,3.3,3.5,3,3,4.208
14,Com1,74,7.3,3.9,5.4,5.8,4.5,6.7,1,2,2.59
14,SimA1,74,2.4,4.6,3.4,3.6,2.2,4.8,2,3,10.75
14,AttR1,75,2.2,4.8,4.5,2.5,1.6,4.8,3,1,13.279
14,SimA1,75,2.4,4.6,3.5,3.5,2.2,4.8,3,3,3.92
14,AttR1,76,1.9,4.9,4.8,2.0,1.2,4.9,3,1,7.792
14,Com2,76,5.4,5.8,4.5,6.7,3.3,7.9,2,1,2.525
14,Com1,77,7.3,3.7,5.3,5.7,4.2,6.8,2,2,2.626
14,SimA1,77,2.6,4.7,3.6,3.7,2.5,4.8,1,3,4.556
14,SimA2,78,2.5,4.5,3.5,3.5,3.6,3.4,3,1,4.289
14,SimB2,80,4.6,2.7,3.6,3.7,3.5,3.8,2,1,4.43
15,SimB2,1,4.6,2.6,3.6,3.6,3.5,3.7,1,2,12.455
15,Com1,2,7.1,3.9,5.2,5.8,4.1,6.9,2,2,13.506
15,SimA1,3,2.6,4.7,3.6,3.7,2.5,4.8,3,2,2.672
15,Com1,4,7.4,3.6,5.4,5.6,4.5,6.5,3,2,7.108
15,AttR1,4,2.5,4.5,4.6,2.4,1.9,4.5,3,1,11.821
15,SimA1,4,2.7,4.5,3.6,3.6,2.5,4.7,2,2,6.112
15,SimA1,5,2.4,4.7,3.5,3.6,2.2,4.9,2,2,4.673
15,SimA1,7,2.4,4.6,3.4,3.6,2.2,4.8,3,2,2.915
15,SimA2,8,2.5,4.3,3.4,3.4,3.6,3.2,1,2,3.537
15,SimB1,9,4.3,2.7,3.4,3.6,4.4,2.6,3,2,5.629
15,AttR2,10,2.6,4.4,4.7,2.3,4.7,1.7,2,2,5.537
15,Com2,11,5.2,5.6,4.1,6.7,3.3,7.5,3,1,7.875
15,AttR1,11,2.0,4.6,4.3,2.3,1.4,4.6,3,2,4.27
15,SimA2,11,2.7,4.4,3.6,3.5,3.8,3.3,2,2,4.608
15,AttR1,12,2.6,4.4,4.7,2.3,2.0,4.4,3,1,10.736
15,SimB2,12,4.3,2.5,3.4,3.4,3.3,3.5,1,2,7.692
15,Com1,13,7.4,3.7,5.3,5.8,4.2,6.9,2,2,4.884
15,AttR1,13,2.3,4.6,4.5,2.4,1.7,4.6,3,2,9.743
15,AttR2,14,2.3,4.6,4.4,2.5,4.4,1.8,2,2,8.801
15,Com1,15,7.3,3.6,5.3,5.6,4.2,6.7,2,2,8.786
15,Com2,16,5.2,5.7,4.1,6.8,3.2,7.7,1,1,3.843
15,AttR2,16,1.9,4.9,4.8,2.0,4.8,1.4,2,2,9.329
15,SimB2,17,4.4,2.6,3.5,3.5,3.4,3.6,1,3,7.711
15,Com1,19,7.4,3.6,5.4,5.6,4.4,6.6,1,2,5.732
15,AttR2,19,2.6,4.6,4.8,2.4,4.8,1.7,3,1,7.696
15,SimB1,19,4.5,2.5,3.5,3.5,4.7,2.3,3,2,5.89
15,Com2,20,5.3,5.7,4.3,6.7,3.3,7.7,2,1,3.474
15,AttR2,20,2.2,4.8,4.5,2.5,4.5,1.9,2,2,3.983
15,SimA1,20,2.7,4.4,3.6,3.5,2.5,4.6,3,1,4.737
15,Com2,21,5.3,5.8,4.3,6.8,3.4,7.7,1,1,12.531
15,AttR2,21,2.4,4.7,4.6,2.5,4.6,1.7,3,2,4.321
15,Com1,22,7.3,3.9,5.4,5.8,4.5,6.7,1,2,4.578
15,SimA2,22,2.4,4.6,3.5,3.5,3.7,3.3,1,2,7.092
15,AttR1,23,2.6,4.5,4.6,2.5,1.9,4.5,2,2,8.27
15,SimB1,23,4.5,2.5,3.5,3.5,4.6,2.4,1,2,1.105
15,Com2,24,5.4,5.6,4.5,6.5,3.4,7.6,1,1,9.764
15,AttR2,24,2.5,4.5,4.8,2.2,4.8,1.4,3,2,6.814
15,Com2,25,5.4,5.7,4.4,6.7,3.5,7.6,1,1,4.608
15,AttR2,25,2.4,4.4,4.7,2.1,4.7,1.3,2,1,8.273
15,AttR2,26,2.2,4.8,4.5,2.5,4.5,1.9,1,2,5.01
15,AttR1,29,2.2,4.8,4.5,2.5,1.6,4.8,1,2,9.599
15,AttR1,30,2.5,4.5,4.7,2.3,1.8,4.5,3,1,5.519
15,SimB2,30,4.6,2.6,3.6,3.6,3.5,3.7,1,2,19.087
15,AttR2,31,2.5,4.6,4.4,2.7,4.4,2.1,3,2,6.477
15,SimA2,31,2.4,4.7,3.5,3.6,3.7,3.4,1,3,10.862
15,AttR2,32,2.6,4.6,4.8,2.4,4.8,1.8,1,1,3.342
15,Com2,34,5.3,5.8,4.3,6.8,3.2,7.9,3,1,4.558
15,SimA1,34,2.5,4.5,3.5,3.5,2.4,4.6,3,1,5.199
15,Com1,35,7.3,3.6,5.3,5.6,4.4,6.5,1,2,3.025
15,AttR1,36,2.5,4.6,4.4,2.7,1.9,4.6,1,1,4.894
15,Com2,37,5.4,5.8,4.5,6.7,3.3,7.9,3,1,6.927
15,AttR2,37,2.3,4.8,4.5,2.6,4.5,1.9,3,1,4.178
15,SimB1,37,4.6,2.7,3.6,3.7,4.7,2.6,1,2,7.934
15,Com2,38,5.4,5.8,4.3,6.9,3.5,7.7,2,1,13.985
15,AttR1,38,2.6,4.6,4.8,2.4,1.9,4.6,2,1,7.214
15,Com1,40,7.3,3.7,5.3,5.7,4.2,6.8,3,2,5.744
15,SimA2,40,2.5,4.5,3.5,3.5,3.6,3.4,2,2,6.159
15,Com2,41,5.3,5.6,4.4,6.5,3.3,7.6,2,1,8.639
15,Com1,42,7.4,3.7,5.3,5.8,4.3,6.8,1,2,2.528
15,SimB2,42,4.5,2.5,3.5,3.5,3.3,3.7,2,2,8.848
15,SimA1,43,2.5,4.3,3.4,3.4,2.4,4.4,3,2,5.84
15,Com2,44,5.3,5.8,4.4,6.7,3.2,7.9,3,1,3.441
15,AttR1,44,2.3,4.6,4.4,2.5,1.5,4.6,3,2,5.436
15,Com1,45,7.4,3.6,5.3,5.7,4.3,6.7,2,2,5.328
15,AttR1,45,2.2,4.8,4.5,2.5,1.5,4.8,1,2,3.248
15,SimA2,45,2.7,4.5,3.6,3.6,3.8,3.4,3,2,8.125
15,AttR1,46,2.2,4.6,4.4,2.4,1.4,4.6,1,2,7.891
15,Com1,47,7.4,3.6,5.3,5.7,4.4,6.6,1,2,3.135
15,AttR2,47,2.5,4.5,4.6,2.4,4.6,1.8,2,1,4.369
15,SimB1,47,4.6,2.6,3.6,3.6,4.8,2.4,1,2,11.166
15,AttR2,48,2.6,4.5,4.6,2.5,4.6,1.9,2,1,3.601
15,SimA2,48,2.6,4.7,3.6,3.7,3.8,3.5,2,1,2.335
15,Com2,49,5.2,5.6,4.3,6.5,3.1,7.7,3,1,2.175
15,AttR2,49,2.0,4.6,4.3,2.3,4.3,1.6,3,1,4.671
15,Com2,50,5.3,5.7,4.4,6.6,3.4,7.6,1,1,2.862
15,AttR2,52,2.5,4.5,4.4,2.6,4.4,2.0,1,1,4.082
15,SimA1,52,2.7,4.5,3.6,3.6,2.6,4.6,2,1,3.534
15,Com1,53,7.4,3.7,5.4,5.7,4.4,6.7,3,2,6.015
15,AttR1,53,2.5,4.4,4.5,2.4,1.8,4.4,2,2,2.911
15,SimB2,53,4.5,2.5,3.5,3.5,3.4,3.6,3,2,3.185
15,Com1,54,7.4,3.8,5.4,5.8,4.3,6.9,1,2,3.378
15,SimB1,54,4.4,2.7,3.5,3.6,4.5,2.6,2,2,9.071
15,Com2,56,5.3,5.6,4.4,6.5,3.2,7.7,2,1,5.2
15,AttR1,56,2.5,4.5,4.8,2.2,1.9,4.5,2,1,32.609
15,SimA1,56,2.4,4.6,3.5,3.5,2.2,4.8,3,1,2.669
15,Com2,57,5.3,5.6,4.2,6.7,3.4,7.5,2,1,2.849
15,SimB2,57,4.4,2.7,3.5,3.6,3.4,3.7,1,3,7.36
15,Com1,58,7.4,3.5,5.3,5.6,4.3,6.6,1,2,2.317
15,SimB1,58,4.4,2.6,3.5,3.5,4.5,2.5,3,2,12.638
15,AttR1,59,2.5,4.5,4.4,2.6,1.8,4.5,1,2,6.993
15,SimB1,59,4.6,2.6,3.6,3.6,4.8,2.4,3,2,2.656
15,Com1,60,7.3,3.8,5.3,5.8,4.3,6.8,2,2,4.32
15,AttR1,60,2.6,4.6,4.8,2.4,1.9,4.6,3,2,1.713
15,SimA2,60,2.4,4.6,3.4,3.6,3.6,3.4,1,1,6.719
15,Com1,61,7.2,3.9,5.3,5.8,4.4,6.7,3,2,3.297
15,Com1,62,7.4,3.5,5.3,5.6,4.4,6.5,1,2,4.701
15,AttR2,65,2.2,4.6,4.4,2.4,4.4,1.6,3,1,3.791
15,SimB1,65,4.5,2.6,3.6,3.5,4.6,2.5,2,2,8.768
15,Com1,67,7.3,3.5,5.2,5.6,4.3,6.5,2,2,2.959
15,AttR1,67,1.9,4.9,4.8,2.0,1.2,4.9,1,2,9.183
15,SimA2,67,2.6,4.4,3.5,3.5,3.7,3.3,1,2,3.408
15,Com2,68,5.3,5.6,4.3,6.6,3.3,7.6,1,1,7.283
15,Com1,70,7.3,3.5,5.2,5.6,4.1,6.7,1,2,2.046
15,Com2,71,5.3,5.7,4.2,6.8,3.3,7.7,3,1,4.256
15,AttR1,71,2.4,4.4,4.7,2.1,1.7,4.4,2,2,10.96
15,SimA1,71,2.6,4.4,3.5,3.5,2.5,4.5,3,2,7.473
15,Com2,72,5.3,5.8,4.2,6.9,3.3,7.8,3,1,2.017
15,SimA2,73,2.7,4.5,3.6,3.6,3.8,3.4,3,2,7.885
15,AttR2,74,2.5,4.5,4.7,2.3,4.7,1.6,3,1,3.294
15,Com2,75,5.2,5.8,4.1,6.9,3.1,7.9,1,1,4.977
15,SimB1,75,4.3,2.5,3.4,3.4,4.4,2.4,1,2,14.609
15,AttR1,76,2.3,4.8,4.5,2.6,1.6,4.8,1,2,3.869
15,SimB2,76,4.6,2.7,3.6,3.7,3.5,3.8,3,2,11.903
15,AttR1,77,2.4,4.7,4.6,2.5,1.6,4.7,2,2,5.327
15,SimB2,77,4.5,2.6,3.6,3.5,3.5,3.6,2,1,7.405
15,Com2,78,5.4,5.6,4.4,6.6,3.5,7.5,2,1,3.327
15,AttR2,78,2.5,4.4,4.5,2.4,4.5,1.6,3,1,2.032
15,Com1,79,7.3,3.6,5.2,5.7,4.1,6.8,2,2,1.983
15,SimB2,79,4.3,2.7,3.4,3.6,3.2,3.8,1,3,6.223
15,AttR2,80,2.3,4.6,4.5,2.4,4.5,1.7,1,1,2.622
16,Com2,1,5.4,5.8,4.5,6.7,3.3,7.9,2,1,6.44
16,SimB2,1,4.4,2.7,3.5,3.6,3.4,3.7,1,3,4.565
16,SimB2,2,4.3,2.5,3.4,3.4,3.3,3.5,2,1,1.391
16,AttR1,3,2.6,4.6,4.8,2.4,1.9,4.6,3,2,18.961
16,Com2,3,5.4,5.6,4.5,6.5,3.4,7.6,3,1,2.318
16,AttR2,4,2.5,4.5,4.8,2.2,4.8,1.4,2,2,22.514
16,SimA2,4,2.4,4.6,3.5,3.5,3.7,3.3,2,3,2.765
16,AttR2,5,2.6,4.6,4.8,2.4,4.8,1.8,2,2,28.629
16,Com2,6,5.2,5.8,4.1,6.9,3.1,7.9,2,3,9.213
16,AttR2,7,2.2,4.6,4.4,2.4,4.4,1.6,3,1,14.195
16,Com2,7,5.3,5.6,4.4,6.5,3.2,7.7,1,1,12.335
16,AttR2,8,2.5,4.6,4.4,2.7,4.4,2.1,2,2,14.274
16,SimB2,8,4.6,2.6,3.6,3.6,3.5,3.7,3,1,3.426
16,AttR2,9,2.5,4.5,4.7,2.3,4.7,1.6,1,2,7.444
16,Com1,9,7.3,3.6,5.3,5.6,4.2,6.7,3,2,2.146
16,SimB2,9,4.5,2.6,3.6,3.5,3.5,3.6,3,2,5.088
16,Com1,10,7.4,3.7,5.4,5.7,4.4,6.7,3,3,3.679
16,Com2,11,5.3,5.6,4.2,6.7,3.4,7.5,3,1,2.607
16,SimB1,11,4.5,2.5,3.5,3.5,4.6,2.4,2,3,15.343
16,AttR1,12,2.4,4.7,4.6,2.5,1.6,4.7,1,2,12.61
16,Com1,12,7.4,3.6,5.3,5.7,4.3,6.7,3,1,5.629
16,AttR1,13,2.6,4.4,4.7,2.3,2.0,4.4,1,2,7.891
16,SimB2,13,4.6,2.7,3.6,3.7,3.5,3.8,2,1,4.702
16,Com1,14,7.4,3.5,5.3,5.6,4.4,6.5,1,2,6.031
16,SimB2,15,4.5,2.5,3.5,3.5,3.4,3.6,1,3,6.654
16,Com1,16,7.4,3.7,5.3,5.8,4.2,6.9,2,3,5.968
16,AttR2,18,2.4,4.7,4.6,2.5,4.6,1.7,1,2,7.122
16,Com2,18,5.3,5.8,4.3,6.8,3.4,7.7,3,2,4.61
16,AttR1,20,2.2,4.6,4.4,2.4,1.4,4.6,3,2,8.739
16,Com2,20,5.3,5.7,4.4,6.6,3.4,7.6,2,2,3.727
16,SimA1,20,2.6,4.7,3.6,3.7,2.5,4.8,1,3,5.455
16,Com1,21,7.4,3.5,5.3,5.6,4.3,6.6,1,1,16.561
16,SimB2,21,4.5,2.5,3.5,3.5,3.3,3.7,2,1,6.718
16,AttR2,22,2.5,4.5,4.6,2.4,4.6,1.8,2,2,4.388
16,SimA2,22,2.7,4.4,3.6,3.5,3.8,3.3,1,2,1.969
16,AttR1,23,1.9,4.9,4.8,2.0,1.2,4.9,2,2,7.891
16,AttR1,25,2.5,4.6,4.4,2.7,1.9,4.6,3,2,9.585
16,SimA1,25,2.5,4.5,3.5,3.5,2.4,4.6,1,1,4.882
16,AttR1,26,2.6,4.6,4.8,2.4,1.9,4.6,2,1,12.349
16,Com1,27,7.3,3.6,5.2,5.7,4.1,6.8,1,1,4.482
16,AttR1,28,2.5,4.5,4.6,2.4,1.9,4.5,2,2,14.354
16,SimB1,28,4.3,2.5,3.4,3.4,4.4,2.4,1,1,5.727
16,AttR2,29,1.9,4.9,4.8,2.0,4.8,1.4,3,2,5.376
16,SimA1,29,2.7,4.5,3.6,3.6,2.5,4.7,2,3,4.385
16,AttR1,30,2.5,4.5,4.7,2.3,1.8,4.5,2,2,10.222
16,Com2,30,5.2,5.6,4.3,6.5,3.1,7.7,3,1,3.378
16,AttR2,31,2.3,4.6,4.4,2.5,4.4,1.8,1,2,11.712
16,Com2,31,5.2,5.6,4.1,6.7,3.3,7.5,3,1,3.264
16,AttR2,32,2.6,4.4,4.7,2.3,4.7,1.7,1,1,8.509
16,SimA1,32,2.4,4.7,3.5,3.6,2.2,4.9,3,1,5.952
16,SimA2,33,2.7,4.5,3.6,3.6,3.8,3.4,1,3,9.647
16,AttR2,34,2.3,4.6,4.5,2.4,4.5,1.7,2,2,5.777
16,AttR2,36,2.5,4.5,4.4,2.6,4.4,2.0,1,2,13.359
16,AttR1,37,2.3,4.8,4.5,2.6,1.6,4.8,1,1,23.551
16,Com1,38,7.3,3.9,5.4,5.8,4.5,6.7,2,1,2.414
16,SimB1,38,4.4,2.7,3.5,3.6,4.5,2.6,3,3,9.267
16,AttR1,39,2.3,4.6,4.4,2.5,1.5,4.6,3,1,11.762
16,Com1,39,7.2,3.9,5.3,5.8,4.4,6.7,3,3,4.351
16,SimB1,39,4.4,2.6,3.5,3.5,4.5,2.5,3,3,2.207
16,Com2,41,5.3,5.7,4.2,6.8,3.3,7.7,2,1,3.795
16,SimA1,41,2.7,4.5,3.6,3.6,2.6,4.6,2,3,3.775
16,SimB1,42,4.5,2.6,3.6,3.5,4.6,2.5,1,3,2.754
16,AttR1,43,2.2,4.8,4.5,2.5,1.5,4.8,1,1,4.656
16,Com2,43,5.3,5.8,4.4,6.7,3.2,7.9,1,2,5.778
16,SimB2,43,4.3,2.7,3.4,3.6,3.2,3.8,1,3,3.342
16,Com1,44,7.3,3.5,5.2,5.6,4.1,6.7,1,3,3.167
16,SimB1,45,4.6,2.7,3.6,3.7,4.7,2.6,1,1,5.087
16,AttR1,46,2.0,4.6,4.3,2.3,1.4,4.6,3,2,6.174
16,SimA2,47,2.4,4.6,3.4,3.6,3.6,3.4,1,1,7.841
16,Com1,48,7.3,3.8,5.3,5.8,4.3,6.8,3,3,4.286
16,AttR1,49,2.6,4.5,4.6,2.5,1.9,4.5,2,1,13.328
16,Com2,49,5.3,5.6,4.4,6.5,3.3,7.6,3,2,2.515
16,AttR1,52,2.3,4.6,4.5,2.4,1.7,4.6,3,1,6.607
16,SimB1,52,4.6,2.6,3.6,3.6,4.8,2.4,1,3,2.318
16,Com2,53,5.3,5.8,4.2,6.9,3.3,7.8,2,2,6.271
16,SimA1,53,2.6,4.4,3.5,3.5,2.5,4.5,2,2,1.633
16,AttR1,54,2.2,4.8,4.5,2.5,1.6,4.8,2,1,12.767
16,Com1,54,7.4,3.6,5.3,5.7,4.4,6.6,1,3,7.843
16,AttR2,55,2.2,4.8,4.5,2.5,4.5,1.9,3,2,7.311
16,Com1,55,7.1,3.9,5.2,5.8,4.1,6.9,2,1,1.821
16,AttR1,57,2.4,4.4,4.7,2.1,1.7,4.4,3,2,4.656
16,SimB1,57,4.6,2.6,3.6,3.6,4.8,2.4,3,2,1.76
16,Com2,58,5.4,5.8,4.3,6.9,3.5,7.7,3,3,16.048
16,SimA1,58,2.4,4.6,3.4,3.6,2.2,4.8,2,3,9.23
16,Com1,59,7.4,3.6,5.4,5.6,4.4,6.6,3,1,2.784
16,Com2,60,5.4,5.6,4.4,6.6,3.5,7.5,1,1,8.366
16,SimA2,60,2.6,4.4,3.5,3.5,3.7,3.3,3,3,3.681
16,AttR1,61,2.5,4.5,4.8,2.2,1.9,4.5,2,2,3.315
16,Com1,61,7.3,3.7,5.3,5.7,4.2,6.8,1,2,9.33
16,Com2,62,5.3,5.8,4.3,6.8,3.2,7.9,1,3,1.985
16,SimA1,62,2.7,4.4,3.6,3.5,2.5,4.6,1,3,7.266
16,SimA2,63,2.6,4.7,3.6,3.7,3.8,3.5,3,1,8.942
16,Com1,64,7.3,3.6,5.3,5.6,4.4,6.5,1,1,3.502
16,SimA2,64,2.5,4.5,3.5,3.5,3.6,3.4,1,1,2.319
16,AttR2,65,2.5,4.4,4.5,2.4,4.5,1.6,1,2,10.558
16,AttR2,66,2.2,4.8,4.5,2.5,4.5,1.9,1,2,1.712
16,SimA1,66,2.4,4.6,3.5,3.5,2.2,4.8,2,3,6.173
16,AttR1,67,2.5,4.4,4.5,2.4,1.8,4.4,3,2,3.841
16,SimB2,67,4.4,2.6,3.5,3.5,3.4,3.6,1,1,2.033
16,Com2,68,5.3,5.6,4.3,6.6,3.3,7.6,1,3,14.031
16,Com1,69,7.4,3.6,5.4,5.6,4.5,6.5,2,1,4.672
16,SimA1,69,2.5,4.3,3.4,3.4,2.4,4.4,3,1,5.154
16,SimA2,70,2.7,4.5,3.6,3.6,3.8,3.4,2,3,2.4
16,Com1,71,7.4,3.8,5.4,5.8,4.3,6.9,3,1,1.872
16,SimA2,71,2.5,4.3,3.4,3.4,3.6,3.2,1,2,8.173
16,AttR2,72,2.4,4.4,4.7,2.1,4.7,1.3,3,1,5.858
16,SimB1,72,4.5,2.5,3.5,3.5,4.7,2.3,2,1,8.784
16,AttR2,73,2.6,4.6,4.8,2.4,4.8,1.7,1,2,1.823
16,Com2,73,5.2,5.7,4.1,6.8,3.2,7.7,3,3,11.393
16,SimB2,74,4.6,2.6,3.6,3.6,3.5,3.7,3,2,2.303
16,AttR2,75,2.6,4.5,4.6,2.5,4.6,1.9,3,2,2.111
16,SimA2,75,2.4,4.7,3.5,3.6,3.7,3.4,2,3,2.285
16,Com1,76,7.4,3.7,5.3,5.8,4.3,6.8,1,1,6.238
16,SimB1,76,4.3,2.7,3.4,3.6,4.4,2.6,1,1,1.793
16,AttR2,77,2.3,4.8,4.5,2.6,4.5,1.9,2,2,3.358
16,Com2,77,5.4,5.7,4.4,6.7,3.5,7.6,1,3,2.176
16,AttR2,78,2.0,4.6,4.3,2.3,4.3,1.6,1,2,3.072
16,Com2,79,5.3,5.7,4.3,6.7,3.3,7.7,1,3,5.076
16,AttR1,80,2.5,4.5,4.4,2.6,1.8,4.5,3,3,8.864
16,Com1,80,7.3,3.5,5.2,5.6,4.3,6.5,2,1,7.101
17,SimA1,1,2.7,4.5,3.6,3.6,2.5,4.7,1,2,7.015
17,Com1,1,7.4,3.6,5.4,5.6,4.4,6.6,3,1,12.262
17,AttR2,2,2.5,4.5,4.7,2.3,4.7,1.6,2,2,28.354
17,AttR2,3,2.2,4.8,4.5,2.5,4.5,1.9,3,2,6.291
17,SimA2,3,2.7,4.5,3.6,3.6,3.8,3.4,2,3,4.462
17,AttR2,4,2.2,4.6,4.4,2.4,4.4,1.6,2,2,3.156
17,Com1,4,7.4,3.7,5.3,5.8,4.3,6.8,3,2,2.452
17,AttR1,5,2.5,4.4,4.5,2.4,1.8,4.4,1,2,8.386
17,SimA1,5,2.6,4.4,3.5,3.5,2.5,4.5,1,2,2.863
17,Com1,6,7.4,3.7,5.3,5.8,4.2,6.9,1,2,5.583
17,Com2,7,5.2,5.7,4.1,6.8,3.2,7.7,2,1,2.256
17,SimA2,8,2.6,4.4,3.5,3.5,3.7,3.3,3,2,2.353
17,Com1,8,7.3,3.5,5.2,5.6,4.1,6.7,2,2,2.015
17,AttR2,9,2.5,4.6,4.4,2.7,4.4,2.1,2,2,4.434
17,Com2,9,5.4,5.8,4.5,6.7,3.3,7.9,3,1,2.736
17,SimB1,10,4.4,2.6,3.5,3.5,4.5,2.5,3,2,7.23
17,SimB2,11,4.4,2.6,3.5,3.5,3.4,3.6,3,2,1.41
17,Com2,12,5.3,5.7,4.4,6.6,3.4,7.6,1,1,5.457
17,AttR1,13,2.6,4.6,4.8,2.4,1.9,4.6,1,2,1.762
17,SimB2,13,4.5,2.5,3.5,3.5,3.3,3.7,3,2,3.5
17,Com1,13,7.4,3.6,5.3,5.7,4.4,6.6,1,2,3.056
17,AttR1,14,2.5,4.5,4.8,2.2,1.9,4.5,2,2,5.538
17,AttR1,17,2.0,4.6,4.3,2.3,1.4,4.6,1,2,2.115
17,Com2,17,5.2,5.6,4.3,6.5,3.1,7.7,1,1,2.561
17,AttR2,18,1.9,4.9,4.8,2.0,4.8,1.4,3,2,4.051
17,SimB1,18,4.4,2.7,3.5,3.6,4.5,2.6,2,3,4.672
17,Com1,18,7.4,3.6,5.3,5.7,4.3,6.7,2,3,7.487
17,AttR2,19,2.5,4.4,4.5,2.4,4.5,1.6,2,2,6.882
17,Com2,19,5.3,5.6,4.2,6.7,3.4,7.5,1,1,1.872
17,AttR2,20,2.6,4.5,4.6,2.5,4.6,1.9,2,1,7.33
17,SimA1,20,2.5,4.3,3.4,3.4,2.4,4.4,3,2,3.568
17,Com2,21,5.2,5.6,4.1,6.7,3.3,7.5,2,2,5.776
17,AttR1,22,2.5,4.5,4.4,2.6,1.8,4.5,1,1,7.169
17,AttR2,23,2.2,4.8,4.5,2.5,4.5,1.9,2,2,5.667
17,AttR2,24,2.4,4.4,4.7,2.1,4.7,1.3,1,2,2.675
17,SimB2,24,4.3,2.7,3.4,3.6,3.2,3.8,3,2,3.839
17,AttR1,25,2.3,4.8,4.5,2.6,1.6,4.8,1,1,6.015
17,AttR1,26,2.5,4.5,4.7,2.3,1.8,4.5,3,2,2.115
17,SimA1,26,2.6,4.7,3.6,3.7,2.5,4.8,2,2,2.878
17,AttR1,28,2.6,4.6,4.8,2.4,1.9,4.6,3,2,5.072
17,SimB1,28,4.6,2.7,3.6,3.7,4.7,2.6,3,2,5.535
17,AttR1,29,2.2,4.6,4.4,2.4,1.4,4.6,1,2,2.191
17,SimA2,30,2.5,4.5,3.5,3.5,3.6,3.4,1,2,5.393
17,AttR2,31,2.5,4.5,4.4,2.6,4.4,2.0,3,2,11.168
17,Com2,31,5.4,5.8,4.3,6.9,3.5,7.7,2,1,8.654
17,AttR2,32,2.3,4.6,4.5,2.4,4.5,1.7,2,1,8.799
17,AttR1,33,2.4,4.7,4.6,2.5,1.6,4.7,3,2,5.953
17,SimB2,33,4.6,2.6,3.6,3.6,3.5,3.7,1,2,3.072
17,AttR2,34,2.0,4.6,4.3,2.3,4.3,1.6,3,2,2.065
17,Com2,34,5.3,5.6,4.4,6.5,3.3,7.6,1,2,3.729
17,AttR1,35,2.6,4.5,4.6,2.5,1.9,4.5,2,2,3.342
17,Com1,35,7.3,3.8,5.3,5.8,4.3,6.8,2,2,4.799
17,AttR1,36,2.2,4.8,4.5,2.5,1.5,4.8,2,2,2.29
17,Com1,36,7.3,3.5,5.2,5.6,4.3,6.5,1,2,15.375
17,SimA1,37,2.4,4.6,3.4,3.6,2.2,4.8,1,2,3.038
17,SimB2,38,4.5,2.5,3.5,3.5,3.4,3.6,1,2,3.312
17,SimA2,39,2.6,4.7,3.6,3.7,3.8,3.5,2,3,3.808
17,SimB2,40,4.5,2.6,3.6,3.5,3.5,3.6,1,3,2.481
17,SimA1,41,2.5,4.5,3.5,3.5,2.4,4.6,1,2,2.993
17,AttR1,42,2.4,4.4,4.7,2.1,1.7,4.4,3,2,6.975
17,Com2,42,5.3,5.8,4.3,6.8,3.4,7.7,1,1,2.615
17,SimB1,43,4.5,2.5,3.5,3.5,4.7,2.3,3,2,3.986
17,SimA2,45,2.4,4.6,3.5,3.5,3.7,3.3,3,2,5.312
17,Com2,45,5.3,5.8,4.2,6.9,3.3,7.8,1,1,2.193
17,Com1,46,7.3,3.9,5.4,5.8,4.5,6.7,2,3,6.558
17,SimA2,47,2.4,4.6,3.4,3.6,3.6,3.4,1,3,8.305
17,Com2,47,5.3,5.7,4.2,6.8,3.3,7.7,2,2,2.224
17,AttR2,48,2.3,4.8,4.5,2.6,4.5,1.9,3,2,7.282
17,SimB1,48,4.6,2.6,3.6,3.6,4.8,2.4,2,2,3.295
17,Com2,48,5.4,5.7,4.4,6.7,3.5,7.6,1,1,2.098
17,AttR2,49,2.3,4.6,4.4,2.5,4.4,1.8,2,2,6.67
17,Com1,49,7.3,3.6,5.3,5.6,4.4,6.5,1,2,4.751
17,SimA1,50,2.4,4.6,3.5,3.5,2.2,4.8,1,2,2.626
17,Com2,50,5.3,5.8,4.3,6.8,3.2,7.9,3,1,2.783
17,AttR2,51,2.5,4.5,4.8,2.2,4.8,1.4,1,2,5.614
17,SimB2,51,4.4,2.7,3.5,3.6,3.4,3.7,2,2,1.854
17,Com2,51,5.3,5.7,4.3,6.7,3.3,7.7,2,1,1.76
17,SimA2,53,2.7,4.4,3.6,3.5,3.8,3.3,3,3,5.538
17,Com1,53,7.4,3.7,5.4,5.7,4.4,6.7,1,2,2.002
17,AttR2,55,2.4,4.7,4.6,2.5,4.6,1.7,3,1,7.377
17,SimB2,56,4.3,2.5,3.4,3.4,3.3,3.5,2,2,2.111
17,SimA2,57,2.7,4.5,3.6,3.6,3.8,3.4,1,3,1.841
17,AttR1,58,2.6,4.4,4.7,2.3,2.0,4.4,3,2,4.382
17,SimB2,58,4.6,2.6,3.6,3.6,3.5,3.7,3,2,2.959
17,AttR2,60,2.5,4.5,4.6,2.4,4.6,1.8,1,2,6.431
17,SimB1,60,4.5,2.6,3.6,3.5,4.6,2.5,2,2,2.11
17,Com2,60,5.3,5.6,4.3,6.6,3.3,7.6,1,2,3.824
17,AttR2,61,2.6,4.4,4.7,2.3,4.7,1.7,2,2,3.425
17,SimB1,61,4.3,2.5,3.4,3.4,4.4,2.4,1,2,7.17
17,Com1,61,7.3,3.7,5.3,5.7,4.2,6.8,1,2,4.255
17,AttR1,62,2.3,4.6,4.4,2.5,1.5,4.6,3,2,8.35
17,Com2,62,5.2,5.8,4.1,6.9,3.1,7.9,1,2,6.848
17,SimB1,63,4.5,2.5,3.5,3.5,4.6,2.4,1,3,7.473
17,AttR2,64,2.6,4.6,4.8,2.4,4.8,1.7,3,2,4.019
17,SimA1,65,2.7,4.5,3.6,3.6,2.6,4.6,2,2,2.478
17,Com2,66,5.3,5.6,4.4,6.5,3.2,7.7,3,1,1.902
17,AttR1,67,2.5,4.6,4.4,2.7,1.9,4.6,1,2,6.501
17,SimA1,67,2.4,4.7,3.5,3.6,2.2,4.9,1,1,5.536
17,AttR1,68,2.2,4.8,4.5,2.5,1.6,4.8,2,2,10.862
17,Com1,68,7.3,3.6,5.3,5.6,4.2,6.7,1,3,3.747
17,Com2,69,5.3,5.8,4.4,6.7,3.2,7.9,1,1,2.399
17,AttR1,70,2.3,4.6,4.5,2.4,1.7,4.6,3,2,8.844
17,Com2,70,5.4,5.6,4.5,6.5,3.4,7.6,1,1,3.486
17,SimA2,71,2.4,4.7,3.5,3.6,3.7,3.4,1,2,8.302
17,Com1,71,7.4,3.6,5.4,5.6,4.5,6.5,1,2,2.336
17,AttR1,72,2.5,4.5,4.6,2.4,1.9,4.5,2,2,2.656
17,Com1,72,7.4,3.5,5.3,5.6,4.3,6.6,3,2,2.179
17,SimA2,73,2.5,4.3,3.4,3.4,3.6,3.2,1,3,1.873
17,Com2,73,5.4,5.6,4.4,6.6,3.5,7.5,2,1,1.486
17,Com1,75,7.2,3.9,5.3,5.8,4.4,6.7,2,2,1.919
17,AttR1,76,1.9,4.9,4.8,2.0,1.2,4.9,2,1,3.441
17,Com1,76,7.3,3.6,5.2,5.7,4.1,6.8,3,3,4.031
17,SimB1,77,4.3,2.7,3.4,3.6,4.4,2.6,3,2,7.104
17,Com1,77,7.4,3.5,5.3,5.6,4.4,6.5,1,2,1.981
17,SimA1,78,2.7,4.4,3.6,3.5,2.5,4.6,3,2,2.623
17,AttR2,79,2.6,4.6,4.8,2.4,4.8,1.8,1,2,2.383
17,SimB2,79,4.6,2.7,3.6,3.7,3.5,3.8,1,2,2.145
17,Com1,79,7.4,3.8,5.4,5.8,4.3,6.9,3,1,1.518
17,SimB1,80,4.6,2.6,3.6,3.6,4.8,2.4,3,2,2.558
17,Com1,80,7.1,3.9,5.2,5.8,4.1,6.9,2,3,3.6
18,AttR1,1,1.9,4.9,4.8,2.0,1.2,4.9,1,2,32.278
18,Com1,1,7.4,3.6,5.3,5.7,4.3,6.7,3,3,8.839
18,AttR2,2,2.4,4.7,4.6,2.5,4.6,1.7,1,2,19.042
18,Com1,2,7.4,3.6,5.3,5.7,4.4,6.6,1,2,2.882
18,SimA2,3,2.5,4.3,3.4,3.4,3.6,3.2,1,2,7.071
18,SimA2,4,2.5,4.5,3.5,3.5,3.6,3.4,1,2,5.122
18,AttR2,6,1.9,4.9,4.8,2.0,4.8,1.4,2,2,10.101
18,AttR2,7,2.2,4.8,4.5,2.5,4.5,1.9,1,2,10.017
18,SimA2,7,2.4,4.6,3.5,3.5,3.7,3.3,2,2,6.639
18,AttR2,8,2.3,4.6,4.4,2.5,4.4,1.8,3,2,7.299
18,Com2,8,5.4,5.8,4.5,6.7,3.3,7.9,1,1,7.04
18,SimB1,8,4.3,2.7,3.4,3.6,4.4,2.6,2,2,6.944
18,SimA2,9,2.7,4.5,3.6,3.6,3.8,3.4,1,2,4.046
18,AttR1,11,2.5,4.5,4.6,2.4,1.9,4.5,2,2,14.049
18,AttR2,12,2.5,4.5,4.6,2.4,4.6,1.8,1,1,13.013
18,Com1,12,7.1,3.9,5.2,5.8,4.1,6.9,3,3,9.102
18,AttR1,14,2.6,4.4,4.7,2.3,2.0,4.4,1,2,6.292
18,SimA1,14,2.6,4.7,3.6,3.7,2.5,4.8,2,2,3.903
18,SimB1,15,4.5,2.5,3.5,3.5,4.7,2.3,1,2,6.142
18,AttR1,16,2.2,4.8,4.5,2.5,1.5,4.8,1,2,9.218
18,AttR2,17,2.5,4.4,4.5,2.4,4.5,1.6,2,2,6.098
18,SimB2,17,4.4,2.7,3.5,3.6,3.4,3.7,3,2,11.362
18,Com1,18,7.4,3.7,5.3,5.8,4.3,6.8,1,2,12.674
18,SimA1,18,2.4,4.6,3.5,3.5,2.2,4.8,1,2,5.693
18,Com1,19,7.4,3.7,5.3,5.8,4.2,6.9,3,2,5.135
18,SimA1,19,2.7,4.5,3.6,3.6,2.6,4.6,2,2,6.448
18,Com1,20,7.3,3.7,5.3,5.7,4.2,6.8,1,2,6.093
18,SimB2,20,4.5,2.6,3.6,3.5,3.5,3.6,3,2,11.214
18,AttR2,21,2.6,4.6,4.8,2.4,4.8,1.8,3,2,4.772
18,Com1,21,7.3,3.9,5.4,5.8,4.5,6.7,3,2,5.521
18,Com1,22,7.4,3.8,5.4,5.8,4.3,6.9,2,2,2.398
18,AttR2,23,2.2,4.6,4.4,2.4,4.4,1.6,1,2,10.452
18,SimB1,23,4.6,2.7,3.6,3.7,4.7,2.6,2,2,4.576
18,SimA1,24,2.5,4.5,3.5,3.5,2.4,4.6,1,2,5.999
18,SimB2,25,4.6,2.6,3.6,3.6,3.5,3.7,2,2,7.423
18,AttR2,26,2.2,4.8,4.5,2.5,4.5,1.9,2,2,6.593
18,SimB2,26,4.6,2.7,3.6,3.7,3.5,3.8,3,2,7.168
18,Com1,27,7.4,3.5,5.3,5.6,4.4,6.5,3,2,5.424
18,Com2,28,5.2,5.7,4.1,6.8,3.2,7.7,2,1,4.719
18,SimA2,28,2.6,4.7,3.6,3.7,3.8,3.5,2,2,7.374
18,SimB2,29,4.5,2.5,3.5,3.5,3.3,3.7,3,2,6.001
18,Com2,30,5.4,5.6,4.4,6.6,3.5,7.5,2,1,8.447
18,SimA1,31,2.7,4.4,3.6,3.5,2.5,4.6,3,2,6.189
18,Com2,32,5.3,5.7,4.3,6.7,3.3,7.7,2,1,10.786
18,AttR1,33,2.5,4.5,4.8,2.2,1.9,4.5,3,2,9.007
18,Com2,33,5.3,5.7,4.4,6.6,3.4,7.6,3,1,4.256
18,SimB1,33,4.4,2.7,3.5,3.6,4.5,2.6,1,2,4.286
18,AttR1,36,2.3,4.6,4.4,2.5,1.5,4.6,2,2,6.385
18,Com2,36,5.4,5.6,4.5,6.5,3.4,7.6,2,1,3.187
18,SimA1,36,2.6,4.4,3.5,3.5,2.5,4.5,2,2,3.824
18,AttR1,37,2.3,4.8,4.5,2.6,1.6,4.8,3,2,4.269
18,AttR2,38,2.6,4.5,4.6,2.5,4.6,1.9,3,2,6.993
18,Com2,39,5.3,5.6,4.4,6.5,3.2,7.7,3,1,7.871
18,SimB2,39,4.4,2.6,3.5,3.5,3.4,3.6,2,2,5.969
18,AttR2,41,2.4,4.4,4.7,2.1,4.7,1.3,3,2,9.634
18,Com2,41,5.3,5.8,4.2,6.9,3.3,7.8,3,1,4.75
18,AttR2,42,2.3,4.6,4.5,2.4,4.5,1.7,2,2,5.487
18,Com2,42,5.4,5.7,4.4,6.7,3.5,7.6,3,1,3.376
18,SimA1,42,2.7,4.5,3.6,3.6,2.5,4.7,3,2,4.206
18,Com1,43,7.3,3.6,5.2,5.7,4.1,6.8,2,2,2.113
18,SimB2,43,4.3,2.5,3.4,3.4,3.3,3.5,1,2,2.192
18,AttR1,44,2.6,4.6,4.8,2.4,1.9,4.6,2,2,3.967
18,SimB2,44,4.3,2.7,3.4,3.6,3.2,3.8,1,2,5.984
18,Com2,45,5.3,5.8,4.3,6.8,3.4,7.7,3,1,5.265
18,SimB2,45,4.5,2.5,3.5,3.5,3.4,3.6,2,2,6.834
18,AttR2,46,2.5,4.5,4.7,2.3,4.7,1.6,3,1,12.847
18,AttR2,47,2.5,4.5,4.8,2.2,4.8,1.4,2,2,5.952
18,Com1,48,7.3,3.5,5.2,5.6,4.3,6.5,1,2,6.337
18,Com1,50,7.3,3.6,5.3,5.6,4.4,6.5,2,2,5.902
18,SimA2,50,2.7,4.5,3.6,3.6,3.8,3.4,1,2,5.231
18,AttR2,51,2.5,4.6,4.4,2.7,4.4,2.1,2,2,5.47
18,Com2,51,5.3,5.8,4.3,6.8,3.2,7.9,2,1,1.329
18,Com1,52,7.3,3.5,5.2,5.6,4.1,6.7,3,2,6.951
18,Com2,53,5.2,5.6,4.3,6.5,3.1,7.7,3,1,1.984
18,SimB1,53,4.3,2.5,3.4,3.4,4.4,2.4,2,2,12.662
18,AttR2,55,2.3,4.8,4.5,2.6,4.5,1.9,2,2,5.009
18,Com1,55,7.4,3.7,5.4,5.7,4.4,6.7,2,2,4.383
18,SimB1,55,4.5,2.6,3.6,3.5,4.6,2.5,1,2,4.29
18,AttR1,56,2.5,4.4,4.5,2.4,1.8,4.4,2,2,8.033
18,Com2,57,5.3,5.6,4.4,6.5,3.3,7.6,1,1,4.799
18,SimA2,57,2.4,4.7,3.5,3.6,3.7,3.4,3,2,4.784
18,AttR1,58,2.5,4.5,4.4,2.6,1.8,4.5,3,2,4.176
18,Com1,58,7.2,3.9,5.3,5.8,4.4,6.7,2,2,1.603
18,AttR2,59,2.5,4.5,4.4,2.6,4.4,2.0,3,1,5.872
18,Com1,59,7.4,3.5,5.3,5.6,4.3,6.6,1,2,1.838
18,SimB1,59,4.5,2.5,3.5,3.5,4.6,2.4,3,2,4.416
18,AttR1,60,2.4,4.7,4.6,2.5,1.6,4.7,1,2,5.426
18,AttR1,61,2.3,4.6,4.5,2.4,1.7,4.6,3,2,6.209
18,Com2,61,5.3,5.7,4.2,6.8,3.3,7.7,2,1,2.575
18,SimA1,61,2.4,4.6,3.4,3.6,2.2,4.8,3,2,3.712
18,Com2,62,5.2,5.8,4.1,6.9,3.1,7.9,3,1,2.384
18,SimA2,62,2.6,4.4,3.5,3.5,3.7,3.3,1,2,2.962
18,AttR2,63,2.0,4.6,4.3,2.3,4.3,1.6,3,2,5.728
18,Com2,63,5.3,5.6,4.3,6.6,3.3,7.6,2,1,1.568
18,AttR1,64,2.6,4.5,4.6,2.5,1.9,4.5,3,2,5.197
18,AttR1,65,2.6,4.6,4.8,2.4,1.9,4.6,1,2,4.256
18,Com2,65,5.2,5.6,4.1,6.7,3.3,7.5,1,1,5.153
18,SimA1,65,2.5,4.3,3.4,3.4,2.4,4.4,3,2,3.936
18,AttR2,66,2.6,4.6,4.8,2.4,4.8,1.7,2,1,9.985
18,Com1,66,7.3,3.8,5.3,5.8,4.3,6.8,3,2,5.277
18,Com1,67,7.3,3.6,5.3,5.6,4.2,6.7,1,2,2.58
18,AttR1,68,2.2,4.6,4.4,2.4,1.4,4.6,3,2,6.386
18,AttR1,69,2.2,4.8,4.5,2.5,1.6,4.8,1,2,8.527
18,SimB1,69,4.6,2.6,3.6,3.6,4.8,2.4,3,2,3.762
18,Com2,70,5.3,5.6,4.2,6.7,3.4,7.5,3,1,6.175
18,SimB2,70,4.6,2.6,3.6,3.6,3.5,3.7,3,2,8.544
18,AttR1,71,2.5,4.5,4.7,2.3,1.8,4.5,2,1,4.193
18,Com2,71,5.4,5.8,4.3,6.9,3.5,7.7,3,1,1.809
18,Com1,72,7.4,3.6,5.4,5.6,4.5,6.5,2,2,2.896
18,SimA2,73,2.4,4.6,3.4,3.6,3.6,3.4,2,3,9.715
18,AttR1,74,2.0,4.6,4.3,2.3,1.4,4.6,2,1,4.894
18,AttR1,75,2.4,4.4,4.7,2.1,1.7,4.4,1,1,5.088
18,SimA2,75,2.7,4.4,3.6,3.5,3.8,3.3,3,2,5.792
18,AttR1,76,2.5,4.6,4.4,2.7,1.9,4.6,2,2,4.958
18,Com2,76,5.3,5.8,4.4,6.7,3.2,7.9,1,1,3.665
18,SimB1,76,4.6,2.6,3.6,3.6,4.8,2.4,1,2,4.016
18,AttR2,78,2.6,4.4,4.7,2.3,4.7,1.7,1,2,10.93
18,Com1,79,7.4,3.6,5.4,5.6,4.4,6.6,3,2,8.019
18,SimA1,79,2.4,4.7,3.5,3.6,2.2,4.9,2,2,5.184
18,SimB1,80,4.4,2.6,3.5,3.5,4.5,2.5,2,2,2.735
19,SimB2,1,4.5,2.6,3.6,3.5,3.5,3.6,1,2,49.847
19,Com1,1,7.3,3.7,5.3,5.7,4.2,6.8,1,2,5.047
19,Com2,2,5.4,5.6,4.4,6.6,3.5,7.5,3,1,2.657
19,SimB2,3,4.6,2.6,3.6,3.6,3.5,3.7,3,2,12.691
19,AttR2,3,2.2,4.8,4.5,2.5,4.5,1.9,2,2,5.986
19,SimA2,4,2.6,4.4,3.5,3.5,3.7,3.3,2,3,9.586
19,Com2,4,5.3,5.8,4.3,6.8,3.4,7.7,3,1,2.703
19,SimB1,5,4.6,2.6,3.6,3.6,4.8,2.4,1,2,10.003
19,AttR2,5,2.2,4.6,4.4,2.4,4.4,1.6,3,2,5.426
19,Com1,6,7.4,3.6,5.4,5.6,4.4,6.6,1,2,3.41
19,Com1,7,7.4,3.5,5.3,5.6,4.4,6.5,3,2,3.135
19,AttR1,7,2.0,4.6,4.3,2.3,1.4,4.6,2,2,3.536
19,Com2,8,5.3,5.7,4.4,6.6,3.4,7.6,2,1,5.875
19,AttR2,8,2.6,4.5,4.6,2.5,4.6,1.9,2,1,12.784
19,SimB2,9,4.6,2.6,3.6,3.6,3.5,3.7,3,2,7.475
19,AttR2,9,2.3,4.6,4.5,2.4,4.5,1.7,3,2,5.598
19,SimB1,10,4.4,2.7,3.5,3.6,4.5,2.6,3,3,13.81
19,SimA2,11,2.4,4.6,3.4,3.6,3.6,3.4,2,1,7.314
19,Com2,11,5.4,5.7,4.4,6.7,3.5,7.6,3,1,1.743
19,SimB1,12,4.5,2.5,3.5,3.5,4.7,2.3,1,3,4.562
19,Com1,12,7.2,3.9,5.3,5.8,4.4,6.7,3,2,2.944
19,AttR1,12,2.6,4.6,4.8,2.4,1.9,4.6,1,1,5.551
19,Com2,13,5.3,5.7,4.3,6.7,3.3,7.7,2,1,1.407
19,AttR1,13,2.3,4.6,4.4,2.5,1.5,4.6,3,2,3.392
19,SimB2,14,4.6,2.7,3.6,3.7,3.5,3.8,3,2,6.292
19,AttR2,14,1.9,4.9,4.8,2.0,4.8,1.4,1,2,1.874
19,SimB2,16,4.4,2.7,3.5,3.6,3.4,3.7,2,2,5.25
19,AttR2,16,2.5,4.5,4.4,2.6,4.4,2.0,3,2,4.783
19,SimA1,17,2.5,4.5,3.5,3.5,2.4,4.6,3,2,6.66
19,SimA1,19,2.7,4.5,3.6,3.6,2.6,4.6,2,2,2.546
19,AttR1,20,2.5,4.6,4.4,2.7,1.9,4.6,3,2,7.665
19,SimB2,21,4.3,2.7,3.4,3.6,3.2,3.8,3,2,7.365
19,Com1,22,7.4,3.6,5.4,5.6,4.5,6.5,3,2,3.602
19,AttR2,22,2.5,4.5,4.7,2.3,4.7,1.6,1,2,3.567
19,Com1,23,7.4,3.6,5.3,5.7,4.3,6.7,3,1,10.351
19,Com2,25,5.2,5.6,4.1,6.7,3.3,7.5,1,1,3.599
19,AttR2,25,2.0,4.6,4.3,2.3,4.3,1.6,2,2,3.025
19,Com1,26,7.4,3.7,5.4,5.7,4.4,6.7,3,2,4.384
19,AttR2,26,2.6,4.6,4.8,2.4,4.8,1.7,2,1,4.879
19,Com2,27,5.3,5.8,4.3,6.8,3.2,7.9,2,1,2.93
19,AttR2,27,2.4,4.4,4.7,2.1,4.7,1.3,2,2,6.974
19,SimA1,28,2.6,4.4,3.5,3.5,2.5,4.5,3,2,1.872
19,Com2,28,5.2,5.8,4.1,6.9,3.1,7.9,2,1,5.773
19,SimA1,29,2.6,4.7,3.6,3.7,2.5,4.8,1,2,1.517
19,Com1,29,7.4,3.7,5.3,5.8,4.3,6.8,2,2,2.209
19,AttR1,29,2.2,4.8,4.5,2.5,1.5,4.8,1,2,3.888
19,AttR1,30,2.5,4.5,4.4,2.6,1.8,4.5,1,2,3.408
19,Com1,32,7.3,3.9,5.4,5.8,4.5,6.7,1,2,3.326
19,AttR1,32,2.2,4.8,4.5,2.5,1.6,4.8,3,2,3.822
19,SimB1,33,4.4,2.6,3.5,3.5,4.5,2.5,3,2,2.958
19,Com2,33,5.4,5.8,4.3,6.9,3.5,7.7,2,1,3.648
19,Com1,34,7.3,3.8,5.3,5.8,4.3,6.8,2,1,4.174
19,SimA2,35,2.4,4.6,3.5,3.5,3.7,3.3,3,2,5.825
19,Com1,35,7.3,3.6,5.3,5.6,4.4,6.5,3,2,3.488
19,SimA1,36,2.5,4.3,3.4,3.4,2.4,4.4,1,2,2.209
19,Com2,36,5.4,5.6,4.5,6.5,3.4,7.6,2,1,3.024
19,AttR2,36,2.5,4.5,4.8,2.2,4.8,1.4,1,2,1.632
19,SimA2,37,2.4,4.7,3.5,3.6,3.7,3.4,3,2,5.808
19,AttR2,37,2.3,4.6,4.4,2.5,4.4,1.8,2,2,2.686
19,AttR2,38,2.6,4.6,4.8,2.4,4.8,1.8,1,1,5.694
19,SimA2,39,2.5,4.3,3.4,3.4,3.6,3.2,3,2,3.679
19,Com1,39,7.4,3.8,5.4,5.8,4.3,6.9,2,2,4.659
19,AttR2,39,2.5,4.5,4.6,2.4,4.6,1.8,1,2,1.776
19,Com2,40,5.3,5.8,4.2,6.9,3.3,7.8,3,3,3.312
19,Com2,41,5.3,5.6,4.4,6.5,3.2,7.7,1,1,2.767
19,AttR1,41,2.5,4.5,4.8,2.2,1.9,4.5,1,1,4.287
19,SimB1,42,4.6,2.6,3.6,3.6,4.8,2.4,2,2,1.101
19,SimB1,43,4.6,2.7,3.6,3.7,4.7,2.6,3,2,6.807
19,Com1,43,7.4,3.6,5.3,5.7,4.4,6.6,2,2,3.361
19,Com2,44,5.3,5.6,4.4,6.5,3.3,7.6,1,1,4.385
19,AttR1,44,2.2,4.6,4.4,2.4,1.4,4.6,3,2,3.693
19,SimB1,45,4.3,2.7,3.4,3.6,4.4,2.6,3,3,1.328
19,Com1,46,7.3,3.6,5.3,5.6,4.2,6.7,1,2,4.975
19,AttR1,46,2.3,4.8,4.5,2.6,1.6,4.8,2,2,2.383
19,SimA2,47,2.5,4.5,3.5,3.5,3.6,3.4,2,3,4.046
19,Com1,49,7.3,3.5,5.2,5.6,4.1,6.7,1,2,2.096
19,AttR2,49,2.5,4.4,4.5,2.4,4.5,1.6,2,2,2.224
19,Com1,50,7.3,3.5,5.2,5.6,4.3,6.5,3,2,8.975
19,AttR1,50,2.6,4.4,4.7,2.3,2.0,4.4,2,1,3.152
19,SimB2,51,4.5,2.5,3.5,3.5,3.4,3.6,3,1,8.99
19,AttR1,51,2.5,4.5,4.7,2.3,1.8,4.5,3,2,3.264
19,SimB1,52,4.5,2.6,3.6,3.5,4.6,2.5,2,2,6.481
19,Com1,52,7.3,3.6,5.2,5.7,4.1,6.8,3,2,4.481
19,SimA1,53,2.4,4.6,3.4,3.6,2.2,4.8,3,3,5.471
19,Com2,54,5.3,5.6,4.3,6.6,3.3,7.6,3,1,3.664
19,AttR1,54,2.5,4.5,4.6,2.4,1.9,4.5,3,2,1.711
19,AttR1,55,2.6,4.5,4.6,2.5,1.9,4.5,3,1,3.393
19,SimA1,56,2.4,4.7,3.5,3.6,2.2,4.9,2,2,5.759
19,AttR2,56,2.3,4.8,4.5,2.6,4.5,1.9,1,2,3.505
19,Com1,57,7.4,3.5,5.3,5.6,4.3,6.6,2,2,6.608
19,SimA1,58,2.4,4.6,3.5,3.5,2.2,4.8,1,3,6.749
19,Com2,58,5.3,5.6,4.2,6.7,3.4,7.5,2,1,2.686
19,SimB2,59,4.4,2.6,3.5,3.5,3.4,3.6,2,1,9.283
19,Com2,59,5.2,5.7,4.1,6.8,3.2,7.7,1,2,4.819
19,SimA2,60,2.7,4.5,3.6,3.6,3.8,3.4,3,2,4.991
19,AttR1,61,1.9,4.9,4.8,2.0,1.2,4.9,1,2,3.666
19,Com2,62,5.2,5.6,4.3,6.5,3.1,7.7,3,1,1.983
19,SimA1,63,2.7,4.5,3.6,3.6,2.5,4.7,3,2,3.024
19,AttR2,64,2.5,4.6,4.4,2.7,4.4,2.1,3,2,1.967
19,AttR1,66,2.4,4.7,4.6,2.5,1.6,4.7,1,2,1.518
19,AttR2,67,2.4,4.7,4.6,2.5,4.6,1.7,2,2,3.25
19,SimB1,68,4.3,2.5,3.4,3.4,4.4,2.4,2,2,3.326
19,SimA2,69,2.6,4.7,3.6,3.7,3.8,3.5,2,3,3.263
19,Com2,71,5.3,5.7,4.2,6.8,3.3,7.7,3,1,5.458
19,AttR1,71,2.5,4.4,4.5,2.4,1.8,4.4,1,2,7.982
19,Com1,72,7.4,3.7,5.3,5.8,4.2,6.9,2,2,2.833
19,AttR1,72,2.3,4.6,4.5,2.4,1.7,4.6,1,2,11.809
19,SimB1,73,4.5,2.5,3.5,3.5,4.6,2.4,3,1,4.528
19,SimA2,74,2.7,4.5,3.6,3.6,3.8,3.4,3,1,3.631
19,Com2,74,5.3,5.8,4.4,6.7,3.2,7.9,3,3,5.056
19,AttR2,74,2.2,4.8,4.5,2.5,4.5,1.9,2,2,3.919
19,SimB2,75,4.5,2.5,3.5,3.5,3.3,3.7,1,2,5.328
19,SimB2,78,4.3,2.5,3.4,3.4,3.3,3.5,3,2,3.167
19,Com2,78,5.4,5.8,4.5,6.7,3.3,7.9,2,2,3.631
19,AttR1,78,2.4,4.4,4.7,2.1,1.7,4.4,2,1,5.101
19,SimA1,79,2.7,4.4,3.6,3.5,2.5,4.6,3,1,5.744
19,AttR1,79,2.6,4.6,4.8,2.4,1.9,4.6,2,1,8.943
19,SimA2,80,2.7,4.4,3.6,3.5,3.8,3.3,1,3,3.231
19,Com1,80,7.1,3.9,5.2,5.8,4.1,6.9,3,1,6.402
19,AttR2,80,2.6,4.4,4.7,2.3,4.7,1.7,1,2,5.503
20,SimB2,1,4.5,2.5,3.5,3.5,3.4,3.6,1,1,51.397
20,Com1,1,7.3,3.6,5.2,5.7,4.1,6.8,2,2,11.877
20,SimA1,2,2.7,4.5,3.6,3.6,2.5,4.7,2,2,18.481
20,SimA2,3,2.5,4.5,3.5,3.5,3.6,3.4,3,2,13.347
20,Com1,3,7.2,3.9,5.3,5.8,4.4,6.7,1,2,8.11
20,Com2,4,5.3,5.7,4.4,6.6,3.4,7.6,1,1,17.729
20,SimA2,5,2.6,4.7,3.6,3.7,3.8,3.5,2,3,8.674
20,AttR2,5,2.6,4.6,4.8,2.4,4.8,1.8,2,1,6.112
20,Com1,5,7.3,3.6,5.3,5.6,4.2,6.7,1,3,5.682
20,AttR1,6,1.9,4.9,4.8,2.0,1.2,4.9,2,2,9.038
20,SimB1,7,4.3,2.7,3.4,3.6,4.4,2.6,1,1,18.545
20,SimB2,8,4.6,2.6,3.6,3.6,3.5,3.7,2,3,13.651
20,AttR2,8,2.5,4.6,4.4,2.7,4.4,2.1,2,1,11.277
20,Com2,8,5.2,5.8,4.1,6.9,3.1,7.9,3,2,12.399
20,SimB1,9,4.4,2.6,3.5,3.5,4.5,2.5,3,2,5.827
20,AttR2,9,2.5,4.5,4.7,2.3,4.7,1.6,1,1,11.103
20,AttR2,10,2.0,4.6,4.3,2.3,4.3,1.6,2,2,12.435
20,Com2,10,5.4,5.7,4.4,6.7,3.5,7.6,1,2,3.631
20,SimA2,11,2.4,4.7,3.5,3.6,3.7,3.4,3,2,5.444
20,AttR2,11,2.2,4.8,4.5,2.5,4.5,1.9,3,1,16.368
20,SimA2,12,2.5,4.3,3.4,3.4,3.6,3.2,2,3,7.506
20,AttR2,12,2.4,4.4,4.7,2.1,4.7,1.3,2,2,10.463
20,Com1,12,7.4,3.7,5.4,5.7,4.4,6.7,3,2,3.263
20,AttR1,13,2.6,4.6,4.8,2.4,1.9,4.6,1,2,10.878
20,SimB2,16,4.6,2.7,3.6,3.7,3.5,3.8,2,1,11.06
20,AttR2,16,2.2,4.6,4.4,2.4,4.4,1.6,2,1,7.473
20,Com2,16,5.4,5.6,4.4,6.6,3.5,7.5,2,1,4.833
20,AttR1,17,2.4,4.7,4.6,2.5,1.6,4.7,2,1,7.407
20,SimA1,18,2.4,4.6,3.4,3.6,2.2,4.8,3,2,3.765
20,Com2,19,5.3,5.8,4.4,6.7,3.2,7.9,2,1,9.085
20,SimA2,20,2.6,4.4,3.5,3.5,3.7,3.3,1,2,6.642
20,AttR2,20,2.4,4.7,4.6,2.5,4.6,1.7,2,2,6.191
20,SimB2,21,4.3,2.5,3.4,3.4,3.3,3.5,1,3,3.044
20,AttR1,22,2.0,4.6,4.3,2.3,1.4,4.6,2,2,5.714
20,SimB1,23,4.6,2.6,3.6,3.6,4.8,2.4,3,2,4.081
20,Com2,24,5.3,5.6,4.4,6.5,3.3,7.6,1,1,5.087
20,AttR2,25,2.3,4.6,4.5,2.4,4.5,1.7,2,1,7.584
20,AttR2,26,2.5,4.5,4.8,2.2,4.8,1.4,3,1,6.749
20,SimA1,27,2.7,4.5,3.6,3.6,2.6,4.6,3,2,3.853
20,AttR2,28,2.6,4.6,4.8,2.4,4.8,1.7,2,1,5.197
20,Com1,28,7.3,3.6,5.3,5.6,4.4,6.5,2,2,9.951
20,SimA1,30,2.4,4.7,3.5,3.6,2.2,4.9,1,2,6.527
20,AttR2,30,2.5,4.5,4.4,2.6,4.4,2.0,2,2,9.76
20,Com1,30,7.3,3.7,5.3,5.7,4.2,6.8,1,2,5.536
20,SimB2,31,4.4,2.6,3.5,3.5,3.4,3.6,3,2,6.642
20,Com1,31,7.4,3.8,5.4,5.8,4.3,6.9,1,2,4.51
20,SimA1,32,2.4,4.6,3.5,3.5,2.2,4.8,3,2,4.111
20,Com1,32,7.3,3.9,5.4,5.8,4.5,6.7,1,2,3.857
20,AttR1,33,2.5,4.6,4.4,2.7,1.9,4.6,1,1,9.583
20,SimB2,34,4.3,2.7,3.4,3.6,3.2,3.8,2,2,4.845
20,SimA1,36,2.6,4.7,3.6,3.7,2.5,4.8,2,2,2.256
20,SimB1,37,4.4,2.7,3.5,3.6,4.5,2.6,1,2,2.911
20,AttR2,37,2.6,4.5,4.6,2.5,4.6,1.9,3,2,8.305
20,Com1,37,7.4,3.5,5.3,5.6,4.3,6.6,2,3,6.606
20,SimB2,39,4.6,2.6,3.6,3.6,3.5,3.7,1,3,3.775
20,AttR1,39,2.6,4.4,4.7,2.3,2.0,4.4,2,2,6.319
20,Com1,39,7.4,3.5,5.3,5.6,4.4,6.5,3,2,4.494
20,SimA2,40,2.7,4.4,3.6,3.5,3.8,3.3,3,2,4.063
20,Com2,40,5.4,5.8,4.5,6.7,3.3,7.9,1,1,3.393
20,AttR2,41,2.2,4.8,4.5,2.5,4.5,1.9,1,2,7.136
20,SimB1,42,4.5,2.5,3.5,3.5,4.7,2.3,1,2,4.239
20,AttR1,42,2.5,4.5,4.4,2.6,1.8,4.5,1,2,5.6
20,Com1,42,7.4,3.6,5.4,5.6,4.4,6.6,2,3,9.151
20,AttR1,43,2.2,4.8,4.5,2.5,1.5,4.8,1,2,5.518
20,Com1,43,7.4,3.6,5.3,5.7,4.4,6.6,1,3,8.674
20,SimB1,44,4.3,2.5,3.4,3.4,4.4,2.4,1,2,3.09
20,AttR1,44,2.2,4.6,4.4,2.4,1.4,4.6,1,2,5.808
20,SimB2,45,4.5,2.5,3.5,3.5,3.3,3.7,2,3,7.838
20,AttR1,45,2.6,4.5,4.6,2.5,1.9,4.5,2,1,7.759
20,Com1,45,7.4,3.6,5.3,5.7,4.3,6.7,1,2,3.678
20,Com2,46,5.2,5.7,4.1,6.8,3.2,7.7,1,1,5.168
20,SimA1,47,2.6,4.4,3.5,3.5,2.5,4.5,1,2,4.144
20,Com2,47,5.4,5.6,4.5,6.5,3.4,7.6,2,1,2.08
20,SimB1,48,4.6,2.6,3.6,3.6,4.8,2.4,1,2,3.344
20,AttR2,49,2.3,4.8,4.5,2.6,4.5,1.9,1,1,6.879
20,Com2,49,5.3,5.6,4.4,6.5,3.2,7.7,2,3,19.023
20,AttR1,51,2.5,4.4,4.5,2.4,1.8,4.4,3,2,6.192
20,Com1,51,7.3,3.8,5.3,5.8,4.3,6.8,1,2,10.384
20,AttR1,52,2.3,4.6,4.5,2.4,1.7,4.6,3,1,6.253
20,Com2,52,5.3,5.8,4.2,6.9,3.3,7.8,2,2,4.911
20,SimA1,53,2.5,4.3,3.4,3.4,2.4,4.4,2,2,6.894
20,Com1,53,7.4,3.6,5.4,5.6,4.5,6.5,3,2,2.798
20,SimB1,54,4.5,2.5,3.5,3.5,4.6,2.4,1,2,8.799
20,Com2,54,5.2,5.6,4.1,6.7,3.3,7.5,2,1,2.832
20,AttR1,55,2.5,4.5,4.7,2.3,1.8,4.5,3,2,5.423
20,Com2,55,5.3,5.8,4.3,6.8,3.2,7.9,3,1,2.32
20,SimB2,57,4.5,2.6,3.6,3.5,3.5,3.6,3,2,10.239
20,AttR1,57,2.2,4.8,4.5,2.5,1.6,4.8,1,2,9.695
20,SimA2,58,2.4,4.6,3.5,3.5,3.7,3.3,1,1,3.31
20,AttR1,58,2.5,4.5,4.8,2.2,1.9,4.5,1,1,5.408
20,Com1,58,7.3,3.5,5.2,5.6,4.1,6.7,1,2,9.809
20,AttR1,59,2.3,4.6,4.4,2.5,1.5,4.6,1,2,5.855
20,AttR1,60,2.3,4.8,4.5,2.6,1.6,4.8,1,2,4.399
20,Com2,61,5.3,5.7,4.2,6.8,3.3,7.7,1,1,5.424
20,SimA1,63,2.5,4.5,3.5,3.5,2.4,4.6,2,2,8.238
20,AttR1,63,2.6,4.6,4.8,2.4,1.9,4.6,3,2,7.551
20,SimB2,64,4.4,2.7,3.5,3.6,3.4,3.7,3,2,3.183
20,Com2,64,5.4,5.8,4.3,6.9,3.5,7.7,2,1,2.205
20,SimA2,65,2.7,4.5,3.6,3.6,3.8,3.4,3,3,3.422
20,AttR1,65,2.5,4.5,4.6,2.4,1.9,4.5,2,1,6.365
20,Com1,65,7.1,3.9,5.2,5.8,4.1,6.9,3,2,2.975
20,AttR2,66,1.9,4.9,4.8,2.0,4.8,1.4,2,2,6.129
20,AttR2,67,2.5,4.4,4.5,2.4,4.5,1.6,3,1,3.793
20,Com1,67,7.3,3.5,5.2,5.6,4.3,6.5,1,2,3.953
20,SimB1,68,4.5,2.6,3.6,3.5,4.6,2.5,2,2,3.744
20,SimA2,69,2.4,4.6,3.4,3.6,3.6,3.4,2,2,9.167
20,AttR2,69,2.5,4.5,4.6,2.4,4.6,1.8,3,1,4.991
20,Com2,69,5.3,5.7,4.3,6.7,3.3,7.7,1,1,5.889
20,Com2,70,5.2,5.6,4.3,6.5,3.1,7.7,2,1,1.795
20,SimB1,72,4.6,2.7,3.6,3.7,4.7,2.6,1,2,7.79
20,SimA1,73,2.7,4.4,3.6,3.5,2.5,4.6,3,2,6.015
20,Com1,73,7.4,3.7,5.3,5.8,4.2,6.9,2,2,4.031
20,AttR2,74,2.6,4.4,4.7,2.3,4.7,1.7,1,1,7.824
20,AttR2,75,2.3,4.6,4.4,2.5,4.4,1.8,2,2,4.047
20,Com2,76,5.3,5.8,4.3,6.8,3.4,7.7,1,1,2.769
20,SimA2,77,2.7,4.5,3.6,3.6,3.8,3.4,1,2,5.151
20,Com1,77,7.4,3.7,5.3,5.8,4.3,6.8,3,2,3.888
20,Com2,78,5.3,5.6,4.2,6.7,3.4,7.5,3,1,1.937
20,AttR1,79,2.4,4.4,4.7,2.1,1.7,4.4,1,1,8.881
20,Com2,80,5.3,5.6,4.3,6.6,3.3,7.6,2,1,2.142
21,AttR1,1,2.5,4.5,4.6,2.4,1.9,4.5,1,1,51.672
21,SimA2,1,2.7,4.5,3.6,3.6,3.8,3.4,2,2,17.975
21,SimB2,2,4.6,2.6,3.6,3.6,3.5,3.7,1,2,4.911
21,Com2,2,5.2,5.8,4.1,6.9,3.1,7.9,3,1,6.338
21,SimA2,4,2.5,4.3,3.4,3.4,3.6,3.2,2,2,6.224
21,Com1,4,7.1,3.9,5.2,5.8,4.1,6.9,1,3,10.414
21,Com1,5,7.4,3.5,5.3,5.6,4.3,6.6,2,2,4.196
21,AttR2,7,2.5,4.6,4.4,2.7,4.4,2.1,2,2,12.242
21,AttR1,8,2.5,4.6,4.4,2.7,1.9,4.6,2,2,17.313
21,SimB2,8,4.6,2.6,3.6,3.6,3.5,3.7,3,2,7.199
21,Com1,8,7.4,3.6,5.4,5.6,4.5,6.5,2,2,5.219
21,AttR2,9,2.5,4.5,4.8,2.2,4.8,1.4,2,1,21.058
21,AttR2,10,2.2,4.6,4.4,2.4,4.4,1.6,2,2,11.683
21,AttR2,12,2.6,4.4,4.7,2.3,4.7,1.7,3,1,7.028
21,AttR1,13,2.3,4.6,4.4,2.5,1.5,4.6,2,2,8.786
21,SimB1,13,4.4,2.6,3.5,3.5,4.5,2.5,3,2,8.993
21,AttR2,14,1.9,4.9,4.8,2.0,4.8,1.4,2,2,7.202
21,Com2,14,5.3,5.6,4.2,6.7,3.4,7.5,2,1,4.097
21,Com2,15,5.2,5.6,4.3,6.5,3.1,7.7,1,1,3.488
21,AttR1,16,2.5,4.5,4.4,2.6,1.8,4.5,3,2,6.659
21,SimB2,16,4.5,2.5,3.5,3.5,3.3,3.7,3,2,6.511
21,Com2,16,5.4,5.7,4.4,6.7,3.5,7.6,3,1,7.276
21,AttR1,17,2.0,4.6,4.3,2.3,1.4,4.6,1,2,7.172
21,AttR1,18,2.6,4.4,4.7,2.3,2.0,4.4,1,1,8.163
21,SimA2,18,2.4,4.6,3.4,3.6,3.6,3.4,1,2,11.152
21,Com2,19,5.4,5.8,4.5,6.7,3.3,7.9,1,1,5.342
21,Com1,20,7.4,3.6,5.3,5.7,4.4,6.6,2,2,2.88
21,AttR1,21,2.6,4.6,4.8,2.4,1.9,4.6,2,1,30.913
21,SimB2,21,4.3,2.7,3.4,3.6,3.2,3.8,1,2,6.655
21,Com2,21,5.2,5.6,4.1,6.7,3.3,7.5,2,1,3.086
21,SimA1,22,2.6,4.4,3.5,3.5,2.5,4.5,3,2,5.968
21,SimB1,23,4.3,2.7,3.4,3.6,4.4,2.6,3,2,5.005
21,Com2,23,5.4,5.6,4.5,6.5,3.4,7.6,1,1,2.931
21,AttR1,24,2.4,4.4,4.7,2.1,1.7,4.4,2,1,8.132
21,Com2,24,5.3,5.7,4.4,6.6,3.4,7.6,2,1,3.822
21,SimA1,25,2.7,4.4,3.6,3.5,2.5,4.6,3,2,5.471
21,Com2,25,5.3,5.6,4.3,6.6,3.3,7.6,2,1,3.087
21,SimA1,28,2.6,4.7,3.6,3.7,2.5,4.8,1,2,6.511
21,Com2,28,5.3,5.8,4.3,6.8,3.2,7.9,2,1,4.016
21,SimB1,29,4.5,2.5,3.5,3.5,4.7,2.3,2,2,3.775
21,Com1,29,7.3,3.8,5.3,5.8,4.3,6.8,2,2,6.912
21,Com2,30,5.3,5.8,4.3,6.8,3.4,7.7,2,1,2.641
21,AttR2,32,2.0,4.6,4.3,2.3,4.3,1.6,1,2,8.976
21,SimB1,32,4.6,2.7,3.6,3.7,4.7,2.6,1,2,3.585
21,Com2,32,5.3,5.7,4.2,6.8,3.3,7.7,1,1,3.566
21,SimB1,33,4.5,2.6,3.6,3.5,4.6,2.5,2,2,2.64
21,SimB2,34,4.5,2.6,3.6,3.5,3.5,3.6,1,3,4.015
21,AttR1,35,1.9,4.9,4.8,2.0,1.2,4.9,2,2,10.287
21,SimA2,35,2.7,4.4,3.6,3.5,3.8,3.3,1,2,7.791
21,Com2,35,5.3,5.8,4.2,6.9,3.3,7.8,1,1,3.151
21,AttR2,36,2.6,4.6,4.8,2.4,4.8,1.8,3,1,9.984
21,SimA2,36,2.4,4.7,3.5,3.6,3.7,3.4,3,2,6.814
21,AttR1,37,2.3,4.6,4.5,2.4,1.7,4.6,3,2,4.99
21,SimA2,39,2.5,4.5,3.5,3.5,3.6,3.4,3,2,9.811
21,SimA1,40,2.4,4.6,3.4,3.6,2.2,4.8,1,2,4.734
21,Com2,40,5.3,5.6,4.4,6.5,3.2,7.7,2,1,3.583
21,AttR1,41,2.5,4.5,4.8,2.2,1.9,4.5,3,1,5.328
21,SimA2,41,2.7,4.5,3.6,3.6,3.8,3.4,1,2,4.593
21,Com1,41,7.3,3.5,5.2,5.6,4.1,6.7,1,2,3.169
21,Com2,42,5.4,5.8,4.3,6.9,3.5,7.7,1,1,2.223
21,AttR1,43,2.6,4.6,4.8,2.4,1.9,4.6,1,1,11.168
21,SimA2,43,2.4,4.6,3.5,3.5,3.7,3.3,3,2,4.352
21,Com1,43,7.3,3.6,5.3,5.6,4.2,6.7,3,2,2.142
21,SimA2,44,2.6,4.4,3.5,3.5,3.7,3.3,2,2,2.255
21,AttR2,45,2.6,4.5,4.6,2.5,4.6,1.9,2,1,11.759
21,SimB1,45,4.3,2.5,3.4,3.4,4.4,2.4,3,2,2.896
21,SimB2,46,4.6,2.7,3.6,3.7,3.5,3.8,1,2,3.872
21,AttR2,47,2.5,4.5,4.4,2.6,4.4,2.0,3,1,11.472
21,SimB1,48,4.6,2.6,3.6,3.6,4.8,2.4,2,2,2.239
21,AttR1,49,2.4,4.7,4.6,2.5,1.6,4.7,1,2,8.578
21,Com1,49,7.4,3.7,5.3,5.8,4.2,6.9,1,2,3.074
21,AttR1,50,2.5,4.4,4.5,2.4,1.8,4.4,1,1,13.118
21,AttR1,51,2.2,4.8,4.5,2.5,1.5,4.8,3,2,5.332
21,Com1,51,7.4,3.6,5.3,5.7,4.3,6.7,3,2,3.246
21,Com1,53,7.3,3.7,5.3,5.7,4.2,6.8,1,2,2.398
21,AttR1,54,2.3,4.8,4.5,2.6,1.6,4.8,3,2,7.263
21,SimA1,54,2.5,4.3,3.4,3.4,2.4,4.4,1,2,5.328
21,Com1,54,7.4,3.8,5.4,5.8,4.3,6.9,1,2,3.007
21,SimA1,55,2.4,4.6,3.5,3.5,2.2,4.8,2,2,2.287
21,AttR2,56,2.2,4.8,4.5,2.5,4.5,1.9,3,2,7.985
21,SimA1,56,2.5,4.5,3.5,3.5,2.4,4.6,3,2,2.912
21,Com2,56,5.3,5.7,4.3,6.7,3.3,7.7,1,1,5.776
21,Com1,57,7.3,3.6,5.2,5.7,4.1,6.8,2,2,2.674
21,SimB1,58,4.5,2.5,3.5,3.5,4.6,2.4,1,2,2.706
21,Com1,59,7.4,3.6,5.4,5.6,4.4,6.6,2,2,2.543
21,AttR1,60,2.6,4.5,4.6,2.5,1.9,4.5,3,1,12.674
21,AttR2,61,2.6,4.6,4.8,2.4,4.8,1.7,3,1,7.615
21,Com2,61,5.2,5.7,4.1,6.8,3.2,7.7,3,1,4.304
21,SimB1,63,4.4,2.7,3.5,3.6,4.5,2.6,2,2,3.905
21,Com1,63,7.4,3.7,5.3,5.8,4.3,6.8,3,2,6.34
21,AttR1,64,2.2,4.8,4.5,2.5,1.6,4.8,3,2,7.535
21,AttR2,65,2.4,4.4,4.7,2.1,4.7,1.3,1,1,5.519
21,SimA1,65,2.7,4.5,3.6,3.6,2.6,4.6,3,2,2.8
21,Com1,65,7.4,3.5,5.3,5.6,4.4,6.5,3,2,2.08
21,AttR2,66,2.5,4.4,4.5,2.4,4.5,1.6,1,1,6.176
21,SimB2,66,4.5,2.5,3.5,3.5,3.4,3.6,2,2,2.607
21,Com1,66,7.2,3.9,5.3,5.8,4.4,6.7,3,2,6.48
21,AttR2,67,2.3,4.8,4.5,2.6,4.5,1.9,1,2,7.663
21,SimB2,67,4.3,2.5,3.4,3.4,3.3,3.5,3,2,2.079
21,Com1,69,7.3,3.9,5.4,5.8,4.5,6.7,3,2,4.546
21,AttR2,70,2.5,4.5,4.7,2.3,4.7,1.6,2,1,6.975
21,SimB2,70,4.4,2.7,3.5,3.6,3.4,3.7,3,2,3.04
21,SimA1,71,2.4,4.7,3.5,3.6,2.2,4.9,1,2,2.641
21,Com2,71,5.3,5.8,4.4,6.7,3.2,7.9,3,1,2.833
21,AttR2,72,2.4,4.7,4.6,2.5,4.6,1.7,2,2,10.542
21,SimA1,72,2.7,4.5,3.6,3.6,2.5,4.7,2,2,2.112
21,Com2,72,5.4,5.6,4.4,6.6,3.5,7.5,3,1,1.87
21,AttR2,73,2.3,4.6,4.5,2.4,4.5,1.7,2,2,5.535
21,SimB2,73,4.4,2.6,3.5,3.5,3.4,3.6,1,2,3.103
21,Com2,73,5.3,5.6,4.4,6.5,3.3,7.6,1,1,2.481
21,AttR2,74,2.3,4.6,4.4,2.5,4.4,1.8,1,2,6.543
21,SimA2,74,2.6,4.7,3.6,3.7,3.8,3.5,2,2,7.023
21,AttR1,75,2.5,4.5,4.7,2.3,1.8,4.5,3,1,4.545
21,Com1,75,7.4,3.7,5.4,5.7,4.4,6.7,2,2,3.618
21,AttR2,76,2.5,4.5,4.6,2.4,4.6,1.8,3,1,3.855
21,SimB1,76,4.6,2.6,3.6,3.6,4.8,2.4,3,2,2.145
21,Com1,77,7.3,3.6,5.3,5.6,4.4,6.5,3,2,3.89
21,AttR1,79,2.2,4.6,4.4,2.4,1.4,4.6,3,2,4.8
21,AttR2,80,2.2,4.8,4.5,2.5,4.5,1.9,3,2,4.862
21,Com1,80,7.3,3.5,5.2,5.6,4.3,6.5,2,2,2.467
22,AttR2,1,2.5,4.5,4.8,2.2,4.8,1.4,2,1,34.775
22,SimB2,1,4.3,2.7,3.4,3.6,3.2,3.8,1,2,18.15
22,Com2,2,5.3,5.7,4.3,6.7,3.3,7.7,3,1,15.441
22,SimB1,2,4.4,2.7,3.5,3.6,4.5,2.6,1,2,9.921
22,Com1,3,7.3,3.8,5.3,5.8,4.3,6.8,3,2,6.915
22,SimA2,3,2.7,4.5,3.6,3.6,3.8,3.4,2,2,8.319
22,SimA1,4,2.7,4.5,3.6,3.6,2.5,4.7,2,2,1.631
22,AttR1,5,2.4,4.7,4.6,2.5,1.6,4.7,3,2,14.979
22,Com1,5,7.4,3.5,5.3,5.6,4.4,6.5,2,2,10.816
22,Com1,6,7.3,3.5,5.2,5.6,4.3,6.5,3,2,6.432
22,SimA2,6,2.4,4.6,3.5,3.5,3.7,3.3,2,2,5.279
22,AttR2,8,2.6,4.6,4.8,2.4,4.8,1.7,2,2,10.436
22,Com2,8,5.2,5.6,4.1,6.7,3.3,7.5,3,1,7.712
22,SimA1,9,2.4,4.6,3.5,3.5,2.2,4.8,2,2,4.095
22,AttR1,10,2.2,4.8,4.5,2.5,1.6,4.8,2,2,8.162
22,Com2,10,5.4,5.7,4.4,6.7,3.5,7.6,2,1,11.633
22,SimA1,10,2.6,4.7,3.6,3.7,2.5,4.8,2,2,5.776
22,SimA1,12,2.7,4.4,3.6,3.5,2.5,4.6,2,2,6.194
22,Com2,13,5.2,5.7,4.1,6.8,3.2,7.7,2,1,8.273
22,SimB1,13,4.6,2.6,3.6,3.6,4.8,2.4,3,2,2.159
22,AttR2,14,2.3,4.8,4.5,2.6,4.5,1.9,2,2,16.083
22,Com1,14,7.3,3.5,5.2,5.6,4.1,6.7,3,2,7.79
22,SimA2,14,2.5,4.5,3.5,3.5,3.6,3.4,1,2,3.135
22,AttR1,15,1.9,4.9,4.8,2.0,1.2,4.9,1,2,10.707
22,SimB1,15,4.6,2.6,3.6,3.6,4.8,2.4,3,2,2.289
22,AttR2,17,2.6,4.5,4.6,2.5,4.6,1.9,2,2,9.764
22,AttR2,19,2.4,4.4,4.7,2.1,4.7,1.3,2,1,9.141
22,Com2,19,5.4,5.8,4.5,6.7,3.3,7.9,1,1,7.376
22,SimB1,20,4.6,2.7,3.6,3.7,4.7,2.6,2,2,17.968
22,AttR1,21,2.5,4.6,4.4,2.7,1.9,4.6,1,2,13.394
22,AttR1,22,2.3,4.6,4.4,2.5,1.5,4.6,1,2,11.029
22,Com1,22,7.3,3.6,5.2,5.7,4.1,6.8,1,2,5.583
22,Com2,23,5.4,5.6,4.5,6.5,3.4,7.6,2,1,7.55
22,SimB1,23,4.3,2.5,3.4,3.4,4.4,2.4,3,2,12.702
22,AttR1,24,2.6,4.6,4.8,2.4,1.9,4.6,2,1,6.451
22,Com1,24,7.4,3.7,5.3,5.8,4.2,6.9,1,2,5.09
22,SimB1,25,4.5,2.5,3.5,3.5,4.6,2.4,2,2,8.289
22,Com1,26,7.4,3.8,5.4,5.8,4.3,6.9,1,2,4.85
22,SimA1,26,2.4,4.6,3.4,3.6,2.2,4.8,3,2,12.32
22,AttR1,27,2.5,4.5,4.7,2.3,1.8,4.5,2,1,4.591
22,SimA2,28,2.7,4.4,3.6,3.5,3.8,3.3,2,2,5.711
22,SimA2,29,2.7,4.5,3.6,3.6,3.8,3.4,2,2,9.394
22,Com2,30,5.3,5.8,4.2,6.9,3.3,7.8,2,1,4.944
22,SimA2,31,2.4,4.6,3.4,3.6,3.6,3.4,2,2,15.218
22,Com1,32,7.3,3.6,5.3,5.6,4.4,6.5,2,2,6.367
22,Com1,33,7.4,3.6,5.4,5.6,4.4,6.6,1,2,4.127
22,SimA2,33,2.5,4.3,3.4,3.4,3.6,3.2,1,2,7.938
22,AttR2,34,2.5,4.5,4.4,2.6,4.4,2.0,1,2,5.921
22,Com1,34,7.4,3.7,5.3,5.8,4.3,6.8,1,2,3.745
22,AttR2,35,2.0,4.6,4.3,2.3,4.3,1.6,1,2,6.847
22,AttR1,36,2.2,4.8,4.5,2.5,1.5,4.8,1,2,6.608
22,SimB2,36,4.5,2.5,3.5,3.5,3.4,3.6,2,2,6.449
22,Com1,37,7.4,3.6,5.3,5.7,4.3,6.7,1,2,7.167
22,SimB2,37,4.6,2.7,3.6,3.7,3.5,3.8,2,2,17.341
22,AttR1,38,2.4,4.4,4.7,2.1,1.7,4.4,1,1,7.391
22,AttR1,39,2.3,4.6,4.5,2.4,1.7,4.6,1,2,6.448
22,AttR2,40,2.5,4.5,4.7,2.3,4.7,1.6,2,1,9.374
22,Com1,40,7.3,3.9,5.4,5.8,4.5,6.7,3,2,7.952
22,Com1,41,7.3,3.6,5.3,5.6,4.2,6.7,2,2,2.368
22,SimB2,42,4.5,2.6,3.6,3.5,3.5,3.6,1,3,2.401
22,AttR2,44,2.2,4.6,4.4,2.4,4.4,1.6,3,2,4.961
22,Com1,44,7.2,3.9,5.3,5.8,4.4,6.7,1,2,7.583
22,SimB1,45,4.5,2.5,3.5,3.5,4.7,2.3,3,2,2.801
22,Com2,46,5.3,5.7,4.4,6.6,3.4,7.6,1,1,3.935
22,SimA1,46,2.4,4.7,3.5,3.6,2.2,4.9,2,2,4.448
22,AttR1,48,2.6,4.6,4.8,2.4,1.9,4.6,1,1,6.511
22,AttR2,49,2.2,4.8,4.5,2.5,4.5,1.9,2,2,5.966
22,Com1,49,7.4,3.6,5.4,5.6,4.5,6.5,2,2,2.624
22,SimA2,49,2.4,4.7,3.5,3.6,3.7,3.4,3,2,3.343
22,Com1,50,7.4,3.6,5.3,5.7,4.4,6.6,1,1,13.312
22,SimB2,50,4.6,2.6,3.6,3.6,3.5,3.7,1,2,2.449
22,AttR2,51,2.2,4.8,4.5,2.5,4.5,1.9,1,2,5.775
22,Com2,51,5.3,5.8,4.3,6.8,3.2,7.9,2,1,7.692
22,AttR2,52,2.4,4.7,4.6,2.5,4.6,1.7,2,2,7.299
22,SimA1,52,2.7,4.5,3.6,3.6,2.6,4.6,3,2,6.177
22,AttR2,53,2.5,4.5,4.6,2.4,4.6,1.8,3,1,4.803
22,SimB2,53,4.4,2.7,3.5,3.6,3.4,3.7,1,2,8.08
22,Com2,54,5.4,5.6,4.4,6.6,3.5,7.5,2,1,7.009
22,Com1,55,7.4,3.5,5.3,5.6,4.3,6.6,1,2,3.632
22,SimA1,55,2.6,4.4,3.5,3.5,2.5,4.5,3,2,6.098
22,Com2,56,5.2,5.6,4.3,6.5,3.1,7.7,2,1,4.431
22,SimB2,56,4.3,2.5,3.4,3.4,3.3,3.5,2,2,2.959
22,AttR1,57,2.2,4.6,4.4,2.4,1.4,4.6,1,2,6.031
22,Com2,57,5.4,5.8,4.3,6.9,3.5,7.7,3,1,4.479
22,AttR1,58,2.5,4.5,4.6,2.4,1.9,4.5,3,1,4.494
22,SimB1,58,4.3,2.7,3.4,3.6,4.4,2.6,2,2,8.11
22,AttR1,60,2.3,4.8,4.5,2.6,1.6,4.8,2,2,7.069
22,Com2,60,5.3,5.8,4.3,6.8,3.4,7.7,1,1,8.61
22,SimB1,60,4.5,2.6,3.6,3.5,4.6,2.5,1,2,5.025
22,AttR1,61,2.6,4.5,4.6,2.5,1.9,4.5,2,1,6.334
22,Com1,61,7.3,3.7,5.3,5.7,4.2,6.8,1,2,6.542
22,AttR2,62,2.5,4.6,4.4,2.7,4.4,2.1,2,2,6.351
22,Com2,62,5.3,5.6,4.3,6.6,3.3,7.6,3,1,6.336
22,AttR2,63,2.5,4.4,4.5,2.4,4.5,1.6,1,1,6.049
22,SimB2,63,4.4,2.6,3.5,3.5,3.4,3.6,2,2,4.848
22,AttR1,64,2.5,4.5,4.4,2.6,1.8,4.5,3,2,3.44
22,AttR2,65,1.9,4.9,4.8,2.0,4.8,1.4,2,1,3.888
22,Com2,65,5.3,5.7,4.2,6.8,3.3,7.7,1,1,5.184
22,AttR2,66,2.3,4.6,4.4,2.5,4.4,1.8,1,2,8.016
22,Com2,66,5.2,5.8,4.1,6.9,3.1,7.9,2,1,3.342
22,Com2,68,5.3,5.6,4.4,6.5,3.2,7.7,2,1,2.495
22,SimA1,68,2.5,4.3,3.4,3.4,2.4,4.4,2,2,5.569
22,SimA1,69,2.5,4.5,3.5,3.5,2.4,4.6,2,2,1.166
22,Com1,70,7.4,3.7,5.4,5.7,4.4,6.7,1,2,2.928
22,SimA2,70,2.6,4.7,3.6,3.7,3.8,3.5,1,2,5.83
22,AttR1,71,2.5,4.5,4.8,2.2,1.9,4.5,1,1,8.673
22,Com1,71,7.1,3.9,5.2,5.8,4.1,6.9,2,2,2.783
22,AttR2,73,2.6,4.4,4.7,2.3,4.7,1.7,2,1,7.41
22,SimB2,73,4.5,2.5,3.5,3.5,3.3,3.7,2,2,2.544
22,AttR1,74,2.0,4.6,4.3,2.3,1.4,4.6,1,2,5.582
22,Com2,74,5.3,5.6,4.4,6.5,3.3,7.6,2,1,5.266
22,SimB1,74,4.4,2.6,3.5,3.5,4.5,2.5,2,2,1.777
22,AttR1,75,2.6,4.4,4.7,2.3,2.0,4.4,1,1,15.279
22,SimA2,75,2.6,4.4,3.5,3.5,3.7,3.3,3,2,6.431
22,AttR2,76,2.6,4.6,4.8,2.4,4.8,1.8,2,1,5.888
22,AttR1,77,2.5,4.4,4.5,2.4,1.8,4.4,1,1,4.641
22,Com2,77,5.3,5.6,4.2,6.7,3.4,7.5,2,1,2.48
22,AttR2,78,2.3,4.6,4.5,2.4,4.5,1.7,3,2,8.335
22,Com2,78,5.3,5.8,4.4,6.7,3.2,7.9,3,1,2.078
22,SimB2,78,4.6,2.6,3.6,3.6,3.5,3.7,2,2,1.52
23,AttR1,1,2.3,4.6,4.4,2.5,1.5,4.6,3,1,13.846
23,SimB1,2,4.3,2.7,3.4,3.6,4.4,2.6,3,3,24.1
23,AttR2,2,2.5,4.6,4.4,2.7,4.4,2.1,3,1,10.575
23,Com1,3,7.2,3.9,5.3,5.8,4.4,6.7,3,3,6.258
23,SimB1,4,4.6,2.6,3.6,3.6,4.8,2.4,1,1,16.193
23,Com2,4,5.4,5.6,4.4,6.6,3.5,7.5,1,3,3.309
23,SimA1,6,2.6,4.7,3.6,3.7,2.5,4.8,3,3,11.296
23,AttR1,6,2.5,4.5,4.6,2.4,1.9,4.5,3,1,8.574
23,SimA1,7,2.7,4.5,3.6,3.6,2.5,4.7,1,3,18.612
23,AttR2,7,2.5,4.5,4.7,2.3,4.7,1.6,2,2,11.247
23,AttR1,8,2.3,4.6,4.5,2.4,1.7,4.6,1,2,2.802
23,SimA2,9,2.6,4.7,3.6,3.7,3.8,3.5,2,1,34.945
23,AttR1,9,2.2,4.6,4.4,2.4,1.4,4.6,2,1,12.209
23,Com1,10,7.1,3.9,5.2,5.8,4.1,6.9,1,3,3.023
23,AttR2,11,2.2,4.8,4.5,2.5,4.5,1.9,3,2,2.734
23,AttR1,12,2.6,4.5,4.6,2.5,1.9,4.5,1,2,5.969
23,SimB2,13,4.6,2.7,3.6,3.7,3.5,3.8,2,1,11.633
23,Com2,13,5.3,5.8,4.2,6.9,3.3,7.8,3,3,5.359
23,SimB2,14,4.5,2.6,3.6,3.5,3.5,3.6,1,1,6.034
23,AttR1,14,2.5,4.4,4.5,2.4,1.8,4.4,1,1,3.408
23,Com2,14,5.3,5.8,4.4,6.7,3.2,7.9,3,3,1.505
23,AttR1,15,2.5,4.5,4.7,2.3,1.8,4.5,3,2,3.583
23,SimA2,16,2.4,4.7,3.5,3.6,3.7,3.4,1,1,7.985
23,SimB2,17,4.5,2.5,3.5,3.5,3.4,3.6,3,1,8.292
23,Com2,17,5.3,5.6,4.3,6.6,3.3,7.6,3,3,8.081
23,SimA1,18,2.7,4.4,3.6,3.5,2.5,4.6,1,2,5.744
23,AttR1,19,2.6,4.6,4.8,2.4,1.9,4.6,3,2,3.007
23,Com1,20,7.4,3.6,5.3,5.7,4.4,6.6,2,1,5.345
23,Com1,21,7.4,3.6,5.4,5.6,4.4,6.6,3,1,4.078
23,SimB1,22,4.5,2.5,3.5,3.5,4.6,2.4,1,1,14.737
23,AttR2,22,2.5,4.5,4.6,2.4,4.6,1.8,2,2,3.521
23,SimA2,23,2.5,4.5,3.5,3.5,3.6,3.4,3,2,6.754
23,AttR1,24,2.4,4.4,4.7,2.1,1.7,4.4,1,2,6.305
23,Com2,24,5.4,5.7,4.4,6.7,3.5,7.6,1,3,5.441
23,Com1,25,7.4,3.7,5.3,5.8,4.2,6.9,3,1,2.96
23,SimA2,26,2.7,4.4,3.6,3.5,3.8,3.3,1,2,12.287
23,Com2,26,5.4,5.8,4.3,6.9,3.5,7.7,3,2,1.312
23,SimB2,28,4.3,2.5,3.4,3.4,3.3,3.5,2,1,11.918
23,Com2,28,5.2,5.6,4.1,6.7,3.3,7.5,3,2,10.052
23,SimB1,29,4.5,2.6,3.6,3.5,4.6,2.5,2,3,4.318
23,AttR2,29,2.5,4.5,4.4,2.6,4.4,2.0,3,2,2.512
